{"entry":[{"request":{"method":"POST","url":"Patient"},"resource":{"identifier":[{"system":"https://opensource.samsung.com/projects/helifit/identifier","systemDomainName":"opensource_samsung_com","value":"user12@puglia.gatekeeper.com"},{"system":"https://opensource.samsung.com/projects/helifit/identifier","systemDomainName":"opensource_samsung_com","value":"60b36ccc05f8c40fc9428105"}],"id":"60b36ccc05f8c40fc9428105","resourceType":"Patient"},"fullUrl":"https://opensource.samsung.com/projects/helifit/patient/user12@puglia.gatekeeper.com"},{"request":{"method":"POST","url":"Observation"},"resource":{"identifier":[{"system":"https://opensource.samsung.com/projects/helifit/identifier","value":"Observation/fuisgjsdgcsdkugfsk"}],"code":{"coding":[{"system":"http://loinc.org","code":"82948-1","systemDomainName":"loinc_org","display":"Walking"}]},"effectivePeriod":{"start":"2022-11-30T01:13:38.305899Z","end":"2022-11-30T01:13:38.305953Z"},"subject":{"reference":"https://opensource.samsung.com/projects/helifit/patient/user12@puglia.gatekeeper.com","display":"60b36ccc05f8c40fc9428105"},"id":"fuisgjsdgcsdkugfsk","device":{"identifier":{"system":"https://opensource.samsung.com/projects/helifit/device","value":"XaIq54it7a"}},"resourceType":"Observation","status":"final"},"fullUrl":"https://opensource.samsung.com/projects/helifit/observation/fuisgjsdgcsdkugfsk"},{"request":{"method":"POST","url":"Observation"},"resource":{"identifier":[{"system":"https://opensource.samsung.com/projects/helifit/identifier","value":"fuisgjsdgcsdkugfsk-calorie"}],"component":[{"resourceId":"fuisgjsdgcsdkugfsk-calorie","code":{"coding":[{"system":"http://local-system","code":"calorie","systemDomainName":"local-system","display":"Calorie"}]},"fullUrl":"urn:uuid:6a85ae4f-0a73-45cd-bb30-1859240de1a2","valueQuantity":{"unit":"kcal/s","system":"http://unitsofmeasure.org","code":"kcal/s","value":71}},{"resourceId":"fuisgjsdgcsdkugfsk-calorie","code":{"coding":[{"system":"http://local-system","code":"mean_caloricburn_rate","systemDomainName":"local-system","display":"Mean caloric burn rate"}]},"fullUrl":"urn:uuid:e272bd08-3b0f-4760-b990-77a85b9163a4","valueQuantity":{"unit":"kcal/s","system":"http://unitsofmeasure.org","code":"kcal/s","value":98234}},{"resourceId":"fuisgjsdgcsdkugfsk-calorie","code":{"coding":[{"system":"http://local-system","code":"max_caloricburn_rate","systemDomainName":"local-system","display":"Max caloric burn rate"}]},"fullUrl":"urn:uuid:8f9d0dfb-1786-4d51-9a41-0492485b8e64","valueQuantity":{"unit":"kcal/s","system":"http://unitsofmeasure.org","code":"kcal/s","value":98234}}],"code":{"coding":[{"system":"http://local-system","code":"calorie","systemDomainName":"local-system","display":"Calorie"}]},"effectivePeriod":{"start":"2022-11-30T01:13:38.306202Z","end":"2022-11-30T01:13:38.306252Z"},"subject":{"reference":"https://opensource.samsung.com/projects/helifit/patient/user12@puglia.gatekeeper.com","display":"60b36ccc05f8c40fc9428105"},"derivedFrom":[{"reference":"https://opensource.samsung.com/projects/helifit/observation/fuisgjsdgcsdkugfsk","display":"fuisgjsdgcsdkugfsk"}],"id":"fuisgjsdgcsdkugfsk-calorie","device":{"identifier":{"system":"https://opensource.samsung.com/projects/helifit/device","value":"XaIq54it7a"}},"resourceType":"Observation","status":"final"},"fullUrl":"https://opensource.samsung.com/projects/helifit/observation/fuisgjsdgcsdkugfsk-calorie"},{"request":{"method":"POST","url":"Observation"},"resource":{"identifier":[{"system":"https://opensource.samsung.com/projects/helifit/identifier","value":"fuisgjsdgcsdkugfsk-count"}],"component":[{"resourceId":"fuisgjsdgcsdkugfsk-count","code":{"coding":[{"system":"http://local-system","code":"count","systemDomainName":"local-system","display":"Count"}]},"fullUrl":"urn:uuid:3a28b8c4-55c6-4480-923b-6a7060efdcd5","valueQuantity":{"unit":"...","system":"http://unitsofmeasure.org","code":"...","value":985789}},{"resourceId":"fuisgjsdgcsdkugfsk-count","code":{"coding":[{"system":"http://local-system","code":"count_type","systemDomainName":"local-system","display":"Count type"}]},"fullUrl":"urn:uuid:3cbb0467-dad9-475e-89bd-3413f7cee415","valueQuantity":{"value":30001}}],"code":{"coding":[{"system":"http://local-system","code":"count","systemDomainName":"local-system","display":"Count"}]},"effectivePeriod":{"start":"2022-11-30T01:13:38.30648Z","end":"2022-11-30T01:13:38.306508Z"},"subject":{"reference":"https://opensource.samsung.com/projects/helifit/patient/user12@puglia.gatekeeper.com","display":"60b36ccc05f8c40fc9428105"},"derivedFrom":[{"reference":"https://opensource.samsung.com/projects/helifit/observation/fuisgjsdgcsdkugfsk","display":"fuisgjsdgcsdkugfsk"}],"id":"fuisgjsdgcsdkugfsk-count","device":{"identifier":{"system":"https://opensource.samsung.com/projects/helifit/device","value":"XaIq54it7a"}},"resourceType":"Observation","status":"final"},"fullUrl":"https://opensource.samsung.com/projects/helifit/observation/fuisgjsdgcsdkugfsk-count"},{"request":{"method":"POST","url":"Observation"},"resource":{"identifier":[{"system":"https://opensource.samsung.com/projects/helifit/identifier","value":"fuisgjsdgcsdkugfsk-count-0"}],"code":{"coding":[{"system":"http://samsung/live-data","code":"live_data_count","systemDomainName":"samsung","display":"Live data count"}]},"effectivePeriod":{"start":"2022-11-30T01:13:38.306707Z","end":"2022-11-30T01:13:38.306727Z"},"subject":{"reference":"https://opensource.samsung.com/projects/helifit/patient/user12@puglia.gatekeeper.com","display":"60b36ccc05f8c40fc9428105"},"derivedFrom":[{"reference":"https://opensource.samsung.com/projects/helifit/observation/fuisgjsdgcsdkugfsk-count","display":"fuisgjsdgcsdkugfsk-count"}],"id":"fuisgjsdgcsdkugfsk-count-0","resourceType":"Observation","status":"final","valueQuantity":{"unit":"...","system":"http://unitsofmeasure.org","code":"...","value":83}},"fullUrl":"https://opensource.samsung.com/projects/helifit/observation/fuisgjsdgcsdkugfsk-count-0"},{"request":{"method":"POST","url":"Observation"},"resource":{"identifier":[{"system":"https://opensource.samsung.com/projects/helifit/identifier","value":"fuisgjsdgcsdkugfsk-count-1"}],"code":{"coding":[{"system":"http://samsung/live-data","code":"live_data_count","systemDomainName":"samsung","display":"Live data count"}]},"effectivePeriod":{"start":"2022-11-30T01:13:38.306933Z","end":"2022-11-30T01:13:38.306987Z"},"subject":{"reference":"https://opensource.samsung.com/projects/helifit/patient/user12@puglia.gatekeeper.com","display":"60b36ccc05f8c40fc9428105"},"derivedFrom":[{"reference":"https://opensource.samsung.com/projects/helifit/observation/fuisgjsdgcsdkugfsk-count","display":"fuisgjsdgcsdkugfsk-count"}],"id":"fuisgjsdgcsdkugfsk-count-1","resourceType":"Observation","status":"final","valueQuantity":{"unit":"...","system":"http://unitsofmeasure.org","code":"...","value":85}},"fullUrl":"https://opensource.samsung.com/projects/helifit/observation/fuisgjsdgcsdkugfsk-count-1"},{"request":{"method":"POST","url":"Observation"},"resource":{"identifier":[{"system":"https://opensource.samsung.com/projects/helifit/identifier","value":"fuisgjsdgcsdkugfsk-distance"}],"component":[{"resourceId":"fuisgjsdgcsdkugfsk-distance","code":{"coding":[{"system":"http://local-system","code":"distance","systemDomainName":"local-system","display":"Distance"}]},"fullUrl":"urn:uuid:a0345a7f-3c18-43c2-9d3b-981d3de1262b","valueQuantity":{"unit":"m","system":"http://unitsofmeasure.org","code":"m","value":250}},{"resourceId":"fuisgjsdgcsdkugfsk-distance","code":{"coding":[{"system":"http://local-system","code":"incline_distance","systemDomainName":"local-system","display":"Incline distance"}]},"fullUrl":"urn:uuid:c803ea37-96ac-49ac-88fc-7cdab9ecf61e","valueQuantity":{"unit":"m","system":"http://unitsofmeasure.org","code":"m","value":8924378}},{"resourceId":"fuisgjsdgcsdkugfsk-distance","code":{"coding":[{"system":"http://local-system","code":"decline_distance","systemDomainName":"local-system","display":"Decline distance"}]},"fullUrl":"urn:uuid:a911a64f-583c-4b15-93d2-c917b8a9bbd0","valueQuantity":{"unit":"m","system":"http://unitsofmeasure.org","code":"m","value":8936785}}],"code":{"coding":[{"system":"http://local-system","code":"distance","systemDomainName":"local-system","display":"Distance"}]},"effectivePeriod":{"start":"2022-11-30T01:13:38.307248Z","end":"2022-11-30T01:13:38.307282Z"},"subject":{"reference":"https://opensource.samsung.com/projects/helifit/patient/user12@puglia.gatekeeper.com","display":"60b36ccc05f8c40fc9428105"},"derivedFrom":[{"reference":"https://opensource.samsung.com/projects/helifit/observation/fuisgjsdgcsdkugfsk","display":"fuisgjsdgcsdkugfsk"}],"id":"fuisgjsdgcsdkugfsk-distance","device":{"identifier":{"system":"https://opensource.samsung.com/projects/helifit/device","value":"XaIq54it7a"}},"resourceType":"Observation","status":"final"},"fullUrl":"https://opensource.samsung.com/projects/helifit/observation/fuisgjsdgcsdkugfsk-distance"},{"request":{"method":"POST","url":"Observation"},"resource":{"identifier":[{"system":"https://opensource.samsung.com/projects/helifit/identifier","value":"fuisgjsdgcsdkugfsk-distance-0"}],"code":{"coding":[{"system":"http://samsung/live-data","code":"live_data_distance","systemDomainName":"samsung","display":"Live data distance"}]},"effectivePeriod":{"start":"2022-11-30T01:13:38.307515Z","end":"2022-11-30T01:13:38.307561Z"},"subject":{"reference":"https://opensource.samsung.com/projects/helifit/patient/user12@puglia.gatekeeper.com","display":"60b36ccc05f8c40fc9428105"},"derivedFrom":[{"reference":"https://opensource.samsung.com/projects/helifit/observation/fuisgjsdgcsdkugfsk-distance","display":"fuisgjsdgcsdkugfsk-distance"}],"id":"fuisgjsdgcsdkugfsk-distance-0","resourceType":"Observation","status":"final","valueQuantity":{"unit":"m","system":"http://unitsofmeasure.org","code":"m","value":250}},"fullUrl":"https://opensource.samsung.com/projects/helifit/observation/fuisgjsdgcsdkugfsk-distance-0"},{"request":{"method":"POST","url":"Observation"},"resource":{"identifier":[{"system":"https://opensource.samsung.com/projects/helifit/identifier","value":"fuisgjsdgcsdkugfsk-distance-1"}],"code":{"coding":[{"system":"http://samsung/live-data","code":"live_data_distance","systemDomainName":"samsung","display":"Live data distance"}]},"effectivePeriod":{"start":"2022-11-30T01:13:38.307884Z","end":"2022-11-30T01:13:38.307916Z"},"subject":{"reference":"https://opensource.samsung.com/projects/helifit/patient/user12@puglia.gatekeeper.com","display":"60b36ccc05f8c40fc9428105"},"derivedFrom":[{"reference":"https://opensource.samsung.com/projects/helifit/observation/fuisgjsdgcsdkugfsk-distance","display":"fuisgjsdgcsdkugfsk-distance"}],"id":"fuisgjsdgcsdkugfsk-distance-1","resourceType":"Observation","status":"final","valueQuantity":{"unit":"m","system":"http://unitsofmeasure.org","code":"m","value":250}},"fullUrl":"https://opensource.samsung.com/projects/helifit/observation/fuisgjsdgcsdkugfsk-distance-1"},{"request":{"method":"POST","url":"Observation"},"resource":{"identifier":[{"system":"https://opensource.samsung.com/projects/helifit/identifier","value":"fuisgjsdgcsdkugfsk-speed"}],"component":[{"resourceId":"fuisgjsdgcsdkugfsk-speed","code":{"coding":[{"system":"http://local-system","code":"mean_speed","systemDomainName":"local-system","display":"Mean speed"}]},"fullUrl":"urn:uuid:34e8dd9b-1805-4821-8e60-9cf0b3e0ba22","valueQuantity":{"unit":"m/s","system":"http://unitsofmeasure.org","code":"m/s","value":76887}},{"resourceId":"fuisgjsdgcsdkugfsk-speed","code":{"coding":[{"system":"http://local-system","code":"max_speed","systemDomainName":"local-system","display":"Max speed"}]},"fullUrl":"urn:uuid:97d1e461-23bc-4ee3-85f7-3757d4a56614","valueQuantity":{"unit":"m/s","system":"http://unitsofmeasure.org","code":"m/s","value":983478}}],"code":{"coding":[{"system":"http://local-system","code":"speed","systemDomainName":"local-system","display":"Speed"}]},"effectivePeriod":{"start":"2022-11-30T01:13:38.308153Z","end":"2022-11-30T01:13:38.308183Z"},"subject":{"reference":"https://opensource.samsung.com/projects/helifit/patient/user12@puglia.gatekeeper.com","display":"60b36ccc05f8c40fc9428105"},"derivedFrom":[{"reference":"https://opensource.samsung.com/projects/helifit/observation/fuisgjsdgcsdkugfsk","display":"fuisgjsdgcsdkugfsk"}],"id":"fuisgjsdgcsdkugfsk-speed","device":{"identifier":{"system":"https://opensource.samsung.com/projects/helifit/device","value":"XaIq54it7a"}},"resourceType":"Observation","status":"final"},"fullUrl":"https://opensource.samsung.com/projects/helifit/observation/fuisgjsdgcsdkugfsk-speed"},{"request":{"method":"POST","url":"Observation"},"resource":{"identifier":[{"system":"https://opensource.samsung.com/projects/helifit/identifier","value":"fuisgjsdgcsdkugfsk-speed-0"}],"code":{"coding":[{"system":"http://samsung/live-data","code":"live_data_speed","systemDomainName":"samsung","display":"Live data speed"}]},"effectivePeriod":{"start":"2022-11-30T01:13:38.308447Z","end":"2022-11-30T01:13:38.308478Z"},"subject":{"reference":"https://opensource.samsung.com/projects/helifit/patient/user12@puglia.gatekeeper.com","display":"60b36ccc05f8c40fc9428105"},"derivedFrom":[{"reference":"https://opensource.samsung.com/projects/helifit/observation/fuisgjsdgcsdkugfsk-speed","display":"fuisgjsdgcsdkugfsk-speed"}],"id":"fuisgjsdgcsdkugfsk-speed-0","resourceType":"Observation","status":"final","valueQuantity":{"unit":"m/s","system":"http://unitsofmeasure.org","code":"m/s","value":11.061617}},"fullUrl":"https://opensource.samsung.com/projects/helifit/observation/fuisgjsdgcsdkugfsk-speed-0"},{"request":{"method":"POST","url":"Observation"},"resource":{"identifier":[{"system":"https://opensource.samsung.com/projects/helifit/identifier","value":"fuisgjsdgcsdkugfsk-speed-1"}],"code":{"coding":[{"system":"http://samsung/live-data","code":"live_data_speed","systemDomainName":"samsung","display":"Live data speed"}]},"effectivePeriod":{"start":"2022-11-30T01:13:38.308644Z","end":"2022-11-30T01:13:38.308664Z"},"subject":{"reference":"https://opensource.samsung.com/projects/helifit/patient/user12@puglia.gatekeeper.com","display":"60b36ccc05f8c40fc9428105"},"derivedFrom":[{"reference":"https://opensource.samsung.com/projects/helifit/observation/fuisgjsdgcsdkugfsk-speed","display":"fuisgjsdgcsdkugfsk-speed"}],"id":"fuisgjsdgcsdkugfsk-speed-1","resourceType":"Observation","status":"final","valueQuantity":{"unit":"m/s","system":"http://unitsofmeasure.org","code":"m/s","value":11.061617}},"fullUrl":"https://opensource.samsung.com/projects/helifit/observation/fuisgjsdgcsdkugfsk-speed-1"},{"request":{"method":"POST","url":"Observation"},"resource":{"identifier":[{"system":"https://opensource.samsung.com/projects/helifit/identifier","value":"fuisgjsdgcsdkugfsk-cadence"}],"component":[{"resourceId":"fuisgjsdgcsdkugfsk-cadence","code":{"coding":[{"system":"http://local-system","code":"mean_cadence","systemDomainName":"local-system","display":"Mean Cadence"}]},"fullUrl":"urn:uuid:cc749b57-7b0f-4ee5-a26c-8c518391fdda","valueQuantity":{"unit":"m/s","system":"http://unitsofmeasure.org","code":"m/s","value":65432}},{"resourceId":"fuisgjsdgcsdkugfsk-cadence","code":{"coding":[{"system":"http://local-system","code":"max_cadence","systemDomainName":"local-system","display":"Max Cadence"}]},"fullUrl":"urn:uuid:5bf43837-50f2-4493-81ef-0c12d180164d","valueQuantity":{"unit":"m/s","system":"http://unitsofmeasure.org","code":"m/s","value":89723}}],"code":{"coding":[{"system":"http://local-system","code":"cadence","systemDomainName":"local-system","display":"Cadence"}]},"effectivePeriod":{"start":"2022-11-30T01:13:38.308856Z","end":"2022-11-30T01:13:38.30888Z"},"subject":{"reference":"https://opensource.samsung.com/projects/helifit/patient/user12@puglia.gatekeeper.com","display":"60b36ccc05f8c40fc9428105"},"derivedFrom":[{"reference":"https://opensource.samsung.com/projects/helifit/observation/fuisgjsdgcsdkugfsk","display":"fuisgjsdgcsdkugfsk"}],"id":"fuisgjsdgcsdkugfsk-cadence","device":{"identifier":{"system":"https://opensource.samsung.com/projects/helifit/device","value":"XaIq54it7a"}},"resourceType":"Observation","status":"final"},"fullUrl":"https://opensource.samsung.com/projects/helifit/observation/fuisgjsdgcsdkugfsk-cadence"},{"request":{"method":"POST","url":"Observation"},"resource":{"identifier":[{"system":"https://opensource.samsung.com/projects/helifit/identifier","value":"fuisgjsdgcsdkugfsk-cadence-0"}],"code":{"coding":[{"system":"http://samsung/live-data","code":"live_data_cadence","systemDomainName":"samsung","display":"Live data cadence"}]},"effectivePeriod":{"start":"2022-11-30T01:13:38.309024Z","end":"2022-11-30T01:13:38.309044Z"},"subject":{"reference":"https://opensource.samsung.com/projects/helifit/patient/user12@puglia.gatekeeper.com","display":"60b36ccc05f8c40fc9428105"},"derivedFrom":[{"reference":"https://opensource.samsung.com/projects/helifit/observation/fuisgjsdgcsdkugfsk-cadence","display":"fuisgjsdgcsdkugfsk-cadence"}],"id":"fuisgjsdgcsdkugfsk-cadence-0","resourceType":"Observation","status":"final","valueQuantity":{"unit":"m/s","system":"http://unitsofmeasure.org","code":"m/s","value":94}},"fullUrl":"https://opensource.samsung.com/projects/helifit/observation/fuisgjsdgcsdkugfsk-cadence-0"},{"request":{"method":"POST","url":"Observation"},"resource":{"identifier":[{"system":"https://opensource.samsung.com/projects/helifit/identifier","value":"fuisgjsdgcsdkugfsk-cadence-1"}],"code":{"coding":[{"system":"http://samsung/live-data","code":"live_data_cadence","systemDomainName":"samsung","display":"Live data cadence"}]},"effectivePeriod":{"start":"2022-11-30T01:13:38.309201Z","end":"2022-11-30T01:13:38.309221Z"},"subject":{"reference":"https://opensource.samsung.com/projects/helifit/patient/user12@puglia.gatekeeper.com","display":"60b36ccc05f8c40fc9428105"},"derivedFrom":[{"reference":"https://opensource.samsung.com/projects/helifit/observation/fuisgjsdgcsdkugfsk-cadence","display":"fuisgjsdgcsdkugfsk-cadence"}],"id":"fuisgjsdgcsdkugfsk-cadence-1","resourceType":"Observation","status":"final","valueQuantity":{"unit":"m/s","system":"http://unitsofmeasure.org","code":"m/s","value":95.00001}},"fullUrl":"https://opensource.samsung.com/projects/helifit/observation/fuisgjsdgcsdkugfsk-cadence-1"},{"request":{"method":"POST","url":"Observation"},"resource":{"identifier":[{"system":"https://opensource.samsung.com/projects/helifit/identifier","value":"fuisgjsdgcsdkugfsk-power"}],"component":[{"resourceId":"fuisgjsdgcsdkugfsk-power","code":{"coding":[{"system":"http://local-system","code":"mean_power","systemDomainName":"local-system","display":"Mean Power"}]},"fullUrl":"urn:uuid:44ed0379-6f91-4602-bf31-bf0269103a8f","valueQuantity":{"unit":"watt","system":"http://unitsofmeasure.org","code":"W","value":7654}},{"resourceId":"fuisgjsdgcsdkugfsk-power","code":{"coding":[{"system":"http://local-system","code":"max_power","systemDomainName":"local-system","display":"Max Power"}]},"fullUrl":"urn:uuid:e3a81547-5f6e-43fb-bcc4-4e0bc9997aa1","valueQuantity":{"unit":"watt","system":"http://unitsofmeasure.org","code":"W","value":87654}}],"code":{"coding":[{"system":"http://local-system","code":"power","systemDomainName":"local-system","display":"Power"}]},"effectivePeriod":{"start":"2022-11-30T01:13:38.309378Z","end":"2022-11-30T01:13:38.309406Z"},"subject":{"reference":"https://opensource.samsung.com/projects/helifit/patient/user12@puglia.gatekeeper.com","display":"60b36ccc05f8c40fc9428105"},"derivedFrom":[{"reference":"https://opensource.samsung.com/projects/helifit/observation/fuisgjsdgcsdkugfsk","display":"fuisgjsdgcsdkugfsk"}],"id":"fuisgjsdgcsdkugfsk-power","device":{"identifier":{"system":"https://opensource.samsung.com/projects/helifit/device","value":"XaIq54it7a"}},"resourceType":"Observation","status":"final"},"fullUrl":"https://opensource.samsung.com/projects/helifit/observation/fuisgjsdgcsdkugfsk-power"},{"request":{"method":"POST","url":"Observation"},"resource":{"identifier":[{"system":"https://opensource.samsung.com/projects/helifit/identifier","value":"fuisgjsdgcsdkugfsk-power-0"}],"code":{"coding":[{"system":"http://samsung/live-data","code":"live_data_power","systemDomainName":"samsung","display":"Live data power"}]},"effectivePeriod":{"start":"2022-11-30T01:13:38.30963Z","end":"2022-11-30T01:13:38.309656Z"},"subject":{"reference":"https://opensource.samsung.com/projects/helifit/patient/user12@puglia.gatekeeper.com","display":"60b36ccc05f8c40fc9428105"},"derivedFrom":[{"reference":"https://opensource.samsung.com/projects/helifit/observation/fuisgjsdgcsdkugfsk-power","display":"fuisgjsdgcsdkugfsk-power"}],"id":"fuisgjsdgcsdkugfsk-power-0","resourceType":"Observation","status":"final","valueQuantity":{"unit":"watt","system":"http://unitsofmeasure.org","code":"W","value":99.50436}},"fullUrl":"https://opensource.samsung.com/projects/helifit/observation/fuisgjsdgcsdkugfsk-power-0"},{"request":{"method":"POST","url":"Observation"},"resource":{"identifier":[{"system":"https://opensource.samsung.com/projects/helifit/identifier","value":"fuisgjsdgcsdkugfsk-power-1"}],"code":{"coding":[{"system":"http://samsung/live-data","code":"live_data_power","systemDomainName":"samsung","display":"Live data power"}]},"effectivePeriod":{"start":"2022-11-30T01:13:38.309807Z","end":"2022-11-30T01:13:38.309828Z"},"subject":{"reference":"https://opensource.samsung.com/projects/helifit/patient/user12@puglia.gatekeeper.com","display":"60b36ccc05f8c40fc9428105"},"derivedFrom":[{"reference":"https://opensource.samsung.com/projects/helifit/observation/fuisgjsdgcsdkugfsk-power","display":"fuisgjsdgcsdkugfsk-power"}],"id":"fuisgjsdgcsdkugfsk-power-1","resourceType":"Observation","status":"final","valueQuantity":{"unit":"watt","system":"http://unitsofmeasure.org","code":"W","value":99.50436}},"fullUrl":"https://opensource.samsung.com/projects/helifit/observation/fuisgjsdgcsdkugfsk-power-1"},{"request":{"method":"POST","url":"Observation"},"resource":{"identifier":[{"system":"https://opensource.samsung.com/projects/helifit/identifier","value":"fuisgjsdgcsdkugfsk-altitude"}],"component":[{"resourceId":"fuisgjsdgcsdkugfsk-altitude","code":{"coding":[{"system":"http://local-system","code":"altitude_gain","systemDomainName":"local-system","display":"Altitude gain"}]},"fullUrl":"urn:uuid:31ad1b02-5a3e-4a4e-852f-6c994fc658fa","valueQuantity":{"unit":"m","system":"http://unitsofmeasure.org","code":"m","value":1234}},{"resourceId":"fuisgjsdgcsdkugfsk-altitude","code":{"coding":[{"system":"http://local-system","code":"altitude_loss","systemDomainName":"local-system","display":"Altitude loss"}]},"fullUrl":"urn:uuid:8cc1933e-3bbb-468a-96a1-8303616b8dd7","valueQuantity":{"unit":"m","system":"http://unitsofmeasure.org","code":"m","value":7345}},{"resourceId":"fuisgjsdgcsdkugfsk-altitude","code":{"coding":[{"system":"http://local-system","code":"min_altitude","systemDomainName":"local-system","display":"Min altitude"}]},"fullUrl":"urn:uuid:6c345e85-ebd8-4e89-9477-065ebc02d954","valueQuantity":{"unit":"m","system":"http://unitsofmeasure.org","code":"m","value":6432}},{"resourceId":"fuisgjsdgcsdkugfsk-altitude","code":{"coding":[{"system":"http://local-system","code":"max_altitude","systemDomainName":"local-system","display":"Max Altitude"}]},"fullUrl":"urn:uuid:68c3fb18-998e-4a7e-9a81-54b00887a46e","valueQuantity":{"unit":"m","system":"http://unitsofmeasure.org","code":"m","value":6543}}],"code":{"coding":[{"system":"http://local-system","code":"power","systemDomainName":"local-system","display":"Power"}]},"effectivePeriod":{"start":"2022-11-30T01:13:38.310009Z","end":"2022-11-30T01:13:38.310035Z"},"subject":{"reference":"https://opensource.samsung.com/projects/helifit/patient/user12@puglia.gatekeeper.com","display":"60b36ccc05f8c40fc9428105"},"derivedFrom":[{"reference":"https://opensource.samsung.com/projects/helifit/observation/fuisgjsdgcsdkugfsk","display":"fuisgjsdgcsdkugfsk"}],"id":"fuisgjsdgcsdkugfsk-altitude","device":{"identifier":{"system":"https://opensource.samsung.com/projects/helifit/device","value":"XaIq54it7a"}},"resourceType":"Observation","status":"final"},"fullUrl":"https://opensource.samsung.com/projects/helifit/observation/fuisgjsdgcsdkugfsk-altitude"},{"request":{"method":"POST","url":"Observation"},"resource":{"identifier":[{"system":"https://opensource.samsung.com/projects/helifit/identifier","value":"fuisgjsdgcsdkugfsk-duration"}],"code":{"coding":[{"system":"http://local-system","code":"duration","systemDomainName":"local-system","display":"Duration"}]},"effectivePeriod":{"start":"2022-11-30T01:13:38.310182Z","end":"2022-11-30T01:13:38.310207Z"},"subject":{"reference":"https://opensource.samsung.com/projects/helifit/patient/user12@puglia.gatekeeper.com","display":"60b36ccc05f8c40fc9428105"},"derivedFrom":[{"reference":"https://opensource.samsung.com/projects/helifit/observation/fuisgjsdgcsdkugfsk","display":"fuisgjsdgcsdkugfsk"}],"id":"fuisgjsdgcsdkugfsk-duration","device":{"identifier":{"system":"https://opensource.samsung.com/projects/helifit/device","value":"XaIq54it7a"}},"resourceType":"Observation","status":"final","valueQuantity":{"unit":"s","system":"http://unitsofmeasure.org","code":"s","value":930720}},"fullUrl":"https://opensource.samsung.com/projects/helifit/observation/fuisgjsdgcsdkugfsk-duration"},{"request":{"method":"POST","url":"Observation"},"resource":{"identifier":[{"system":"https://opensource.samsung.com/projects/helifit/identifier","value":"fuisgjsdgcsdkugfsk-heart-rate"}],"component":[{"resourceId":"fuisgjsdgcsdkugfsk-heart-rate","code":{"coding":[{"system":"http://local-system","code":"min_heart_rate","systemDomainName":"local-system","display":"Heart Rate Min"}]},"fullUrl":"urn:uuid:d4b88267-220a-453d-a3c7-47e55b080651","valueQuantity":{"unit":"beats/min","system":"http://unitsofmeasure.org","code":"{Beats}/min","value":4332}},{"resourceId":"fuisgjsdgcsdkugfsk-heart-rate","code":{"coding":[{"system":"http://local-system","code":"mean_heart_rate","systemDomainName":"local-system","display":"Heart Rate Mean"}]},"fullUrl":"urn:uuid:2179d4fd-f643-47d0-9ab9-178ebd9cfb85","valueQuantity":{"unit":"beats/min","system":"http://unitsofmeasure.org","code":"{Beats}/min","value":53432}},{"resourceId":"fuisgjsdgcsdkugfsk-heart-rate","code":{"coding":[{"system":"http://local-system","code":"max_heart_rate","systemDomainName":"local-system","display":"Heart Rate Max"}]},"fullUrl":"urn:uuid:047edde6-2faa-4a9a-bb69-dadb4a106112","valueQuantity":{"unit":"beats/min","system":"http://unitsofmeasure.org","code":"{Beats}/min","value":544234}}],"code":{"coding":[{"system":"http://local-system","code":"heart_rate","systemDomainName":"local-system","display":"Heart Rate"}]},"effectivePeriod":{"start":"2022-11-30T01:13:38.310382Z","end":"2022-11-30T01:13:38.310408Z"},"subject":{"reference":"https://opensource.samsung.com/projects/helifit/patient/user12@puglia.gatekeeper.com","display":"60b36ccc05f8c40fc9428105"},"derivedFrom":[{"reference":"https://opensource.samsung.com/projects/helifit/observation/fuisgjsdgcsdkugfsk","display":"fuisgjsdgcsdkugfsk"}],"id":"fuisgjsdgcsdkugfsk-heart-rate","device":{"identifier":{"system":"https://opensource.samsung.com/projects/helifit/device","value":"XaIq54it7a"}},"resourceType":"Observation","status":"final"},"fullUrl":"https://opensource.samsung.com/projects/helifit/observation/fuisgjsdgcsdkugfsk-heart-rate"},{"request":{"method":"POST","url":"Observation"},"resource":{"identifier":[{"system":"https://opensource.samsung.com/projects/helifit/identifier","value":"fuisgjsdgcsdkugfsk-heart-rate-0"}],"code":{"coding":[{"system":"http://samsung/live-data","code":"live_data_heart_rate","systemDomainName":"samsung","display":"Live data heart rate"}]},"effectivePeriod":{"start":"2022-11-30T01:13:38.310564Z","end":"2022-11-30T01:13:38.310585Z"},"subject":{"reference":"https://opensource.samsung.com/projects/helifit/patient/user12@puglia.gatekeeper.com","display":"60b36ccc05f8c40fc9428105"},"derivedFrom":[{"reference":"https://opensource.samsung.com/projects/helifit/observation/fuisgjsdgcsdkugfsk-heart-rate","display":"fuisgjsdgcsdkugfsk-heart-rate"}],"id":"fuisgjsdgcsdkugfsk-heart-rate-0","resourceType":"Observation","status":"final","valueQuantity":{"unit":"beats/min","system":"http://unitsofmeasure.org","code":"{Beats}/min","value":147.48181}},"fullUrl":"https://opensource.samsung.com/projects/helifit/observation/fuisgjsdgcsdkugfsk-heart-rate-0"},{"request":{"method":"POST","url":"Observation"},"resource":{"identifier":[{"system":"https://opensource.samsung.com/projects/helifit/identifier","value":"fuisgjsdgcsdkugfsk-heart-rate-1"}],"code":{"coding":[{"system":"http://samsung/live-data","code":"live_data_heart_rate","systemDomainName":"samsung","display":"Live data heart rate"}]},"effectivePeriod":{"start":"2022-11-30T01:13:38.310729Z","end":"2022-11-30T01:13:38.310756Z"},"subject":{"reference":"https://opensource.samsung.com/projects/helifit/patient/user12@puglia.gatekeeper.com","display":"60b36ccc05f8c40fc9428105"},"derivedFrom":[{"reference":"https://opensource.samsung.com/projects/helifit/observation/fuisgjsdgcsdkugfsk-heart-rate","display":"fuisgjsdgcsdkugfsk-heart-rate"}],"id":"fuisgjsdgcsdkugfsk-heart-rate-1","resourceType":"Observation","status":"final","valueQuantity":{"unit":"beats/min","system":"http://unitsofmeasure.org","code":"{Beats}/min","value":147.48181}},"fullUrl":"https://opensource.samsung.com/projects/helifit/observation/fuisgjsdgcsdkugfsk-heart-rate-1"},{"request":{"method":"POST","url":"Observation"},"resource":{"identifier":[{"system":"https://opensource.samsung.com/projects/helifit/identifier","value":"fuisgjsdgcsdkugfsk-altitude"}],"component":[{"resourceId":"fuisgjsdgcsdkugfsk-altitude","code":{"coding":[{"system":"http://local-system","code":"mean_rpm","systemDomainName":"local-system","display":"Mean rpm"}]},"fullUrl":"urn:uuid:6bdc8786-2a6f-4c46-ba0d-f3787c658969","valueQuantity":{"unit":"Hz","system":"http://unitsofmeasure.org","code":"hZ","value":87654}},{"resourceId":"fuisgjsdgcsdkugfsk-altitude","code":{"coding":[{"system":"http://local-system","code":"max_rpm","systemDomainName":"local-system","display":"Max rpm"}]},"fullUrl":"urn:uuid:ce7d6f20-f43a-405b-8c0c-83b68209d51e","valueQuantity":{"unit":"Hz","system":"http://unitsofmeasure.org","code":"hZ","value":98765}}],"code":{"coding":[{"system":"http://local-system","code":"power","systemDomainName":"local-system","display":"Power"}]},"effectivePeriod":{"start":"2022-11-30T01:13:38.310907Z","end":"2022-11-30T01:13:38.310926Z"},"subject":{"reference":"https://opensource.samsung.com/projects/helifit/patient/user12@puglia.gatekeeper.com","display":"60b36ccc05f8c40fc9428105"},"derivedFrom":[{"reference":"https://opensource.samsung.com/projects/helifit/observation/fuisgjsdgcsdkugfsk","display":"fuisgjsdgcsdkugfsk"}],"id":"fuisgjsdgcsdkugfsk-altitude","device":{"identifier":{"system":"https://opensource.samsung.com/projects/helifit/device","value":"XaIq54it7a"}},"resourceType":"Observation","status":"final"},"fullUrl":"https://opensource.samsung.com/projects/helifit/observation/fuisgjsdgcsdkugfsk-altitude"},{"request":{"method":"POST","url":"Observation"},"resource":{"identifier":[{"system":"https://opensource.samsung.com/projects/helifit/identifier","value":"fuisgjsdgcsdkugfsk-vo2-max"}],"code":{"coding":[{"system":"http://local-system","code":"vo2_max","systemDomainName":"local-system","display":"Vo2_max"}]},"effectivePeriod":{"start":"2022-11-30T01:13:38.311038Z","end":"2022-11-30T01:13:38.311063Z"},"subject":{"reference":"https://opensource.samsung.com/projects/helifit/patient/user12@puglia.gatekeeper.com","display":"60b36ccc05f8c40fc9428105"},"derivedFrom":[{"reference":"https://opensource.samsung.com/projects/helifit/observation/fuisgjsdgcsdkugfsk","display":"fuisgjsdgcsdkugfsk"}],"id":"fuisgjsdgcsdkugfsk-vo2-max","device":{"identifier":{"system":"https://opensource.samsung.com/projects/helifit/device","value":"XaIq54it7a"}},"resourceType":"Observation","status":"final","valueQuantity":{"unit":"mL/kg/min","system":"http://unitsofmeasure.org","code":"mL/kg/min","value":654}},"fullUrl":"https://opensource.samsung.com/projects/helifit/observation/fuisgjsdgcsdkugfsk-vo2-max"},{"request":{"method":"POST","url":"Observation"},"resource":{"identifier":[{"system":"https://opensource.samsung.com/projects/helifit/identifier","value":"fuisgjsdgcsdkugfsk-location-0"}],"component":[{"resourceId":"fuisgjsdgcsdkugfsk-location-0","code":{"coding":[{"system":"http://local-system","code":"latitude","systemDomainName":"local-system","display":"Latitude"}]},"fullUrl":"urn:uuid:e73fec42-53ad-49ff-a5f7-695d98b42d85","valueQuantity":{"unit":"...","system":"http://unitsofmeasure.org","code":"...","value":2.7413864}},{"resourceId":"fuisgjsdgcsdkugfsk-location-0","code":{"coding":[{"system":"http://local-system","code":"longitude","systemDomainName":"local-system","display":"Longitude"}]},"fullUrl":"urn:uuid:a062151a-8877-4f43-a576-8cb9fcaaff52","valueQuantity":{"unit":"...","system":"http://unitsofmeasure.org","code":"...","value":60.37224}},{"resourceId":"fuisgjsdgcsdkugfsk-location-0","code":{"coding":[{"system":"http://local-system","code":"altitude","systemDomainName":"local-system","display":"Altitude"}]},"fullUrl":"urn:uuid:edf3d17b-9eff-4c5d-a3c9-11cc2b9fd243","valueQuantity":{"unit":"m","system":"http://unitsofmeasure.org","code":"...","value":39}},{"resourceId":"fuisgjsdgcsdkugfsk-location-0","code":{"coding":[{"system":"http://local-system","code":"accuracy","systemDomainName":"local-system","display":"Accuracy"}]},"fullUrl":"urn:uuid:95998cc7-7fd2-419e-b949-4b5b1a7077dd","valueQuantity":{"unit":"...","system":"http://unitsofmeasure.org","code":"...","value":0}}],"code":{"coding":[{"system":"http://local-system","code":"location","systemDomainName":"local-system","display":"Location"}]},"effectivePeriod":{"start":"2022-11-30T01:13:38.311285Z","end":"2022-11-30T01:13:38.311304Z"},"subject":{"reference":"https://opensource.samsung.com/projects/helifit/patient/user12@puglia.gatekeeper.com","display":"60b36ccc05f8c40fc9428105"},"derivedFrom":[{"reference":"https://opensource.samsung.com/projects/helifit/observation/fuisgjsdgcsdkugfsk","display":"fuisgjsdgcsdkugfsk"}],"id":"fuisgjsdgcsdkugfsk-location-0","resourceType":"Observation","status":"final"},"fullUrl":"https://opensource.samsung.com/projects/helifit/observation/fuisgjsdgcsdkugfsk-location-0"},{"request":{"method":"POST","url":"Observation"},"resource":{"identifier":[{"system":"https://opensource.samsung.com/projects/helifit/identifier","value":"fuisgjsdgcsdkugfsk-location-1"}],"component":[{"resourceId":"fuisgjsdgcsdkugfsk-location-1","code":{"coding":[{"system":"http://local-system","code":"latitude","systemDomainName":"local-system","display":"Latitude"}]},"fullUrl":"urn:uuid:b0edbcc8-51f9-4c3c-b977-4053e067abae","valueQuantity":{"unit":"...","system":"http://unitsofmeasure.org","code":"...","value":5.7413864}},{"resourceId":"fuisgjsdgcsdkugfsk-location-1","code":{"coding":[{"system":"http://local-system","code":"longitude","systemDomainName":"local-system","display":"Longitude"}]},"fullUrl":"urn:uuid:76a6a3e3-4ff5-4a4f-aa6e-4166096f8600","valueQuantity":{"unit":"...","system":"http://unitsofmeasure.org","code":"...","value":50.37224}},{"resourceId":"fuisgjsdgcsdkugfsk-location-1","code":{"coding":[{"system":"http://local-system","code":"altitude","systemDomainName":"local-system","display":"Altitude"}]},"fullUrl":"urn:uuid:ef02c3ef-72a0-4269-91c9-74f21e6c8701","valueQuantity":{"unit":"m","system":"http://unitsofmeasure.org","code":"...","value":49}},{"resourceId":"fuisgjsdgcsdkugfsk-location-1","code":{"coding":[{"system":"http://local-system","code":"accuracy","systemDomainName":"local-system","display":"Accuracy"}]},"fullUrl":"urn:uuid:287dfc07-2826-482a-8d7b-1f03d77d8652","valueQuantity":{"unit":"...","system":"http://unitsofmeasure.org","code":"...","value":0}}],"code":{"coding":[{"system":"http://local-system","code":"location","systemDomainName":"local-system","display":"Location"}]},"effectivePeriod":{"start":"2022-11-30T01:13:38.311523Z","end":"2022-11-30T01:13:38.311543Z"},"subject":{"reference":"https://opensource.samsung.com/projects/helifit/patient/user12@puglia.gatekeeper.com","display":"60b36ccc05f8c40fc9428105"},"derivedFrom":[{"reference":"https://opensource.samsung.com/projects/helifit/observation/fuisgjsdgcsdkugfsk","display":"fuisgjsdgcsdkugfsk"}],"id":"fuisgjsdgcsdkugfsk-location-1","resourceType":"Observation","status":"final"},"fullUrl":"https://opensource.samsung.com/projects/helifit/observation/fuisgjsdgcsdkugfsk-location-1"}],"type":"transaction","resourceType":"Bundle"}