{
  "entry": [
    {
      "fullUrl": "urn:uuid:043b270a-ca2a-11eb-ad3d-f8e4e357d914",
      "request": {
        "ifNoneExist": "identifier=http://hl7.eu/fhir/ig/gk/identifier/saxony/patient|user1@saxony.gatekeeper.com",
        "method": "POST",
        "url": "Patient"
      },
      "resource": {
        "identifier": [
          {
            "system": "identifier=http://hl7.eu/fhir/ig/gk/identifier/saxony/patient",
            "value": "user2@saxony.gatekeeper.com"
          }
        ],
        "resourceType": "Patient"
      }
    },
    {
      "fullUrl": "urn:uuid:043d705e-ca2a-11eb-b730-f8e4e357d914",
      "request": {
        "method": "POST",
        "url": "Observation"
      },
      "resource": {
        "category": [
          {
            "coding": [
              {
                "code": "vital-signs",
                "display": "Vital Signs",
                "system": "http://terminology.hl7.org/CodeSystem/observation-category"
              }
            ],
            "text": "Vital Signs"
          }
        ],
        "code": {
          "coding": [
            {
              "code": "85354-9",
              "system": "http://loinc.org"
            }
          ]
        },
        "component": [
          {
            "code": {
              "coding": [
                {
                  "code": "8480-6",
                  "display": "Systolic blood pressure",
                  "system": "http://loinc.org"
                }
              ]
            },
            "valueQuantity": {
              "code": "mm[Hg]",
              "system": "http://unitsofmeasure.org",
              "unit": "mmHg",
              "value": 110
            },
            "subject": {
              "reference": "urn:uuid:043d705e-ca2a-11eb-b730-f8e4e357d914"
            }
          },
          {
            "code": {
              "coding": [
                {
                  "code": "8462-4",
                  "display": "Diastolic blood pressure",
                  "system": "http://loinc.org"
                }
              ]
            },
            "valueQuantity": {
              "code": "mm[Hg]",
              "system": "http://unitsofmeasure.org",
              "unit": "mmHg",
              "value": 80
            },
            "subject": {
              "reference": "urn:uuid:043d705e-ca2a-11eb-b730-f8e4e357d914"
            }
          }
        ],
        "device": {
          "display": "bffHdpI7iL saxony",
          "identifier": {
            "system": "http://www.gatekeeper-project.eu/identifier/saxony/samsung/device",
            "value": "bffHdpI7iL"
          }
        },
        "valuePeriod": {
          "start": "2020-10-01T00:00:00+00:00",
          "end": "2021-03-30T23:59:00+00:00"
        },
        "status": "preliminary",
        "subject": {
          "display": "user1@saxony.gatekeeper.com",
          "reference": "urn:uuid:043b270a-ca2a-11eb-ad3d-f8e4e357d914"
        },
        "resourceType": "Observation"
      }
    },
    {
      "fullUrl": "urn:uuid:043d705f-ca2a-11eb-8f62-f8e4e357d914",
      "request": {
        "method": "POST",
        "url": "Observation"
      },
      "resource": {
        "category": [
          {
            "coding": [
              {
                "code": "vital-signs",
                "display": "Vital Signs",
                "system": "http://terminology.hl7.org/CodeSystem/observation-category"
              }
            ],
            "text": "Vital Signs"
          }
        ],
        "code": {
          "coding": [
            {
              "code": "85354-9",
              "system": "http://loinc.org"
            }
          ]
        },
        "component": [
          {
            "code": {
              "coding": [
                {
                  "code": "8480-6",
                  "display": "Systolic blood pressure",
                  "system": "http://loinc.org"
                }
              ]
            },
            "valueQuantity": {
              "code": "mm[Hg]",
              "system": "http://unitsofmeasure.org",
              "unit": "mmHg",
              "value": 109
            },
            "subject": {
              "reference": "urn:uuid:043d705f-ca2a-11eb-8f62-f8e4e357d914"
            }
          },
          {
            "code": {
              "coding": [
                {
                  "code": "8462-4",
                  "display": "Diastolic blood pressure",
                  "system": "http://loinc.org"
                }
              ]
            },
            "valueQuantity": {
              "code": "mm[Hg]",
              "system": "http://unitsofmeasure.org",
              "unit": "mmHg",
              "value": 82
            },
            "subject": {
              "reference": "urn:uuid:043d705f-ca2a-11eb-8f62-f8e4e357d914"
            }
          }
        ],
        "device": {
          "display": "bffHdpI7iL saxony",
          "identifier": {
            "system": "http://www.gatekeeper-project.eu/identifier/saxony/samsung/device",
            "value": "bffHdpI7iL"
          }
        },
        "valuePeriod": {
          "start": "2020-10-01T00:00:00+00:00",
          "end": "2021-03-30T23:59:00+00:00"
        },
        "status": "preliminary",
        "subject": {
          "display": "user1@saxony.gatekeeper.com",
          "reference": "urn:uuid:043b270a-ca2a-11eb-ad3d-f8e4e357d914"
        },
        "resourceType": "Observation"
      }
    },
    {
      "fullUrl": "urn:uuid:043d9755-ca2a-11eb-8776-f8e4e357d914",
      "request": {
        "method": "POST",
        "url": "Observation"
      },
      "resource": {
        "code": {
          "coding": [
            {
              "code": "80489-8",
              "display": "Caffeine intake 24 hour Estimated",
              "system": "http://loinc.org"
            }
          ]
        },
        "device": {
          "display": "0 saxony",
          "identifier": {
            "system": "http://www.gatekeeper-project.eu/identifier/saxony/samsung/device",
            "value": "0"
          }
        },
        "valuePeriod": {
          "start": "2020-10-01T00:00:00+00:00",
          "end": "2021-03-30T23:59:00+00:00"
        },
        "status": "preliminary",
        "subject": {
          "display": "user1@saxony.gatekeeper.com",
          "reference": "urn:uuid:043b270a-ca2a-11eb-ad3d-f8e4e357d914"
        },
        "valueQuantity": {
          "code": "mg/(24.h)",
          "system": "http://unitisofmeasure.org/",
          "unit": "milligrams over 24.h",
          "value": 0
        },
        "resourceType": "Observation"
      }
    },
    {
      "fullUrl": "urn:uuid:043dbd49-ca2a-11eb-859c-f8e4e357d914",
      "request": {
        "method": "POST",
        "url": "Observation"
      },
      "resource": {
        "code": {
          "coding": [
            {
              "code": "73985-4",
              "display": "Exercise activity",
              "system": "https://loinc.org/",
              "subject": {
                "reference": "urn:uuid:043dbd49-ca2a-11eb-859c-f8e4e357d914"
              }
            },
            {
              "code": "LA11834-1",
              "display": "Walking",
              "system": "http://loinc.org",
              "subject": {
                "reference": "urn:uuid:043dbd49-ca2a-11eb-859c-f8e4e357d914"
              }
            }
          ]
        },
        "component": [
          {
            "code": {
              "coding": [
                {
                  "code": "55411-3",
                  "display": "Exercise duration",
                  "system": "http://loinc.org"
                }
              ]
            },
            "valueQuantity": {
              "code": "s",
              "system": "http://unitsofmeasure.org",
              "unit": "s",
              "value": 1405525
            },
            "subject": {
              "reference": "urn:uuid:043dbd49-ca2a-11eb-859c-f8e4e357d914"
            }
          },
          {
            "code": {
              "coding": [
                {
                  "code": "41981-2",
                  "display": "Calories burned",
                  "system": "http://loinc.org"
                }
              ]
            },
            "valueQuantity": {
              "code": "kcal",
              "system": "http://unitsofmeasure.org",
              "unit": "kcal",
              "value": 132
            },
            "subject": {
              "reference": "urn:uuid:043dbd49-ca2a-11eb-859c-f8e4e357d914"
            }
          }
        ],
        "device": {
          "display": "EpZ9iAJxmy saxony",
          "identifier": {
            "system": "http://www.gatekeeper-project.eu/identifier/saxony/samsung/device",
            "value": "EpZ9iAJxmy"
          }
        },
        "valuePeriod": {
          "start": "2020-10-01T00:00:00+00:00",
          "end": "2021-03-30T23:59:00+00:00"
        },
        "status": "preliminary",
        "subject": {
          "display": "user1@saxony.gatekeeper.com",
          "reference": "urn:uuid:043b270a-ca2a-11eb-ad3d-f8e4e357d914"
        },
        "resourceType": "Observation"
      }
    },
    {
      "fullUrl": "urn:uuid:043dbd4a-ca2a-11eb-899f-f8e4e357d914",
      "request": {
        "method": "POST",
        "url": "Observation"
      },
      "resource": {
        "code": {
          "coding": [
            {
              "code": "82949-9",
              "display": "Climbing stairs [ALSFRS-R]",
              "system": "http://loinc.org"
            }
          ]
        },
        "device": {
          "display": "PZqlc5hsYv saxony",
          "identifier": {
            "system": "http://www.gatekeeper-project.eu/identifier/saxony/samsung/device",
            "value": "PZqlc5hsYv"
          }
        },
        "valuePeriod": {
          "start": "2020-10-01T00:00:00+00:00",
          "end": "2021-03-30T23:59:00+00:00"
        },
        "status": "preliminary",
        "subject": {
          "display": "user1@saxony.gatekeeper.com",
          "reference": "urn:uuid:043b270a-ca2a-11eb-ad3d-f8e4e357d914"
        },
        "valueQuantity": {
          "code": "{floor}",
          "system": "http://unitisofmeasure.org/",
          "unit": "floors",
          "value": 1
        },
        "resourceType": "Observation"
      }
    },
    {
      "fullUrl": "urn:uuid:043de53e-ca2a-11eb-8bbf-f8e4e357d914",
      "request": {
        "method": "POST",
        "url": "Observation"
      },
      "resource": {
        "category": [
          {
            "coding": [
              {
                "code": "vital-signs",
                "display": "Vital Signs",
                "system": "http://terminology.hl7.org/CodeSystem/observation-category"
              }
            ],
            "text": "Vital Signs"
          }
        ],
        "code": {
          "coding": [
            {
              "code": "8867-4",
              "display": "Heart rate",
              "system": "http://loinc.org"
            }
          ]
        },
        "device": {
          "display": "PZqlc5hsYv saxony",
          "identifier": {
            "system": "http://www.gatekeeper-project.eu/identifier/saxony/samsung/device",
            "value": "PZqlc5hsYv"
          }
        },
        "valuePeriod": {
          "start": "2020-10-01T00:00:00+00:00",
          "end": "2021-03-30T23:59:00+00:00"
        },
        "status": "preliminary",
        "subject": {
          "display": "user1@saxony.gatekeeper.com",
          "reference": "urn:uuid:043b270a-ca2a-11eb-ad3d-f8e4e357d914"
        },
        "valueQuantity": {
          "code": "/min",
          "system": "http://unitsofmeasure.org",
          "unit": "beats/minute",
          "value": 70
        },
        "resourceType": "Observation"
      }
    },
    {
      "fullUrl": "urn:uuid:043de53f-ca2a-11eb-86b7-f8e4e357d914",
      "request": {
        "method": "POST",
        "url": "Observation"
      },
      "resource": {
        "category": [
          {
            "coding": [
              {
                "code": "vital-signs",
                "display": "Vital Signs",
                "system": "http://terminology.hl7.org/CodeSystem/observation-category"
              }
            ],
            "text": "Vital Signs"
          }
        ],
        "code": {
          "coding": [
            {
              "code": "8867-4",
              "display": "Heart rate",
              "system": "http://loinc.org"
            }
          ]
        },
        "device": {
          "display": "PZqlc5hsYv saxony",
          "identifier": {
            "system": "http://www.gatekeeper-project.eu/identifier/saxony/samsung/device",
            "value": "PZqlc5hsYv"
          }
        },
        "valuePeriod": {
          "start": "2020-10-01T00:00:00+00:00",
          "end": "2021-03-30T23:59:00+00:00"
        },
        "status": "preliminary",
        "subject": {
          "display": "user1@saxony.gatekeeper.com",
          "reference": "urn:uuid:043b270a-ca2a-11eb-ad3d-f8e4e357d914"
        },
        "valueQuantity": {
          "code": "/min",
          "system": "http://unitsofmeasure.org",
          "unit": "beats/minute",
          "value": 73
        },
        "resourceType": "Observation"
      }
    },
    {
      "fullUrl": "urn:uuid:043e0c35-ca2a-11eb-9d0e-f8e4e357d914",
      "request": {
        "method": "POST",
        "url": "Observation"
      },
      "resource": {
        "code": {
          "coding": [
            {
              "code": "8302-2",
              "display": "Body height",
              "system": "http://loinc.org"
            }
          ]
        },
        "device": {
          "display": "2ScFoDb8LR saxony",
          "identifier": {
            "system": "http://www.gatekeeper-project.eu/identifier/saxony/samsung/device",
            "value": "2ScFoDb8LR"
          }
        },
        "valuePeriod": {
          "start": "2020-10-01T00:00:00+00:00",
          "end": "2021-03-30T23:59:00+00:00"
        },
        "status": "preliminary",
        "subject": {
          "display": "user1@saxony.gatekeeper.com",
          "reference": "urn:uuid:043b270a-ca2a-11eb-ad3d-f8e4e357d914"
        },
        "valueQuantity": {
          "code": "cm",
          "system": "http://unitisofmeasure.org/",
          "unit": "cm",
          "value": 170
        },
        "resourceType": "Observation"
      }
    },
    {
      "fullUrl": "urn:uuid:043e0c36-ca2a-11eb-8cf9-f8e4e357d914",
      "request": {
        "method": "POST",
        "url": "Observation"
      },
      "resource": {
        "code": {
          "coding": [
            {
              "code": "20564-1",
              "display": "Oxygen saturation in Blood",
              "system": "http://loinc.org"
            }
          ]
        },
        "device": {
          "display": "2ScFoDb8LR saxony",
          "identifier": {
            "system": "http://www.gatekeeper-project.eu/identifier/saxony/samsung/device",
            "value": "2ScFoDb8LR"
          }
        },
        "valuePeriod": {
          "start": "2020-10-01T00:00:00+00:00",
          "end": "2021-03-30T23:59:00+00:00"
        },
        "status": "preliminary",
        "subject": {
          "display": "user1@saxony.gatekeeper.com",
          "reference": "urn:uuid:043b270a-ca2a-11eb-ad3d-f8e4e357d914"
        },
        "valueQuantity": {
          "code": "%",
          "system": "http://unitisofmeasure.org/",
          "unit": "percent",
          "value": 97
        },
        "resourceType": "Observation"
      }
    },
    {
      "fullUrl": "urn:uuid:043e5a1f-ca2a-11eb-acbf-f8e4e357d914",
      "request": {
        "method": "POST",
        "url": "Observation"
      },
      "resource": {
        "code": {
          "coding": [
            {
              "code": "93832-4",
              "display": "Sleep duration",
              "system": "http://loinc.org"
            }
          ]
        },
        "device": {
          "display": "PZqlc5hsYv saxony",
          "identifier": {
            "system": "http://www.gatekeeper-project.eu/identifier/saxony/samsung/device",
            "value": "PZqlc5hsYv"
          }
        },
        "identifier": [
          {
            "value": "41b4ac6e-64e6-d321-cf93-28614eaa2859"
          }
        ],
        "status": "preliminary",
        "subject": {
          "display": "user1@saxony.gatekeeper.com",
          "reference": "urn:uuid:043b270a-ca2a-11eb-ad3d-f8e4e357d914"
        },
        "valuePeriod": {
          "end": "2021-02-21T02:30:00+00:00",
          "start": "2021-02-20T20:31:00+00:00"
        },
        "resourceType": "Observation"
      }
    },
    {
      "fullUrl": "urn:uuid:043e8111-ca2a-11eb-9d72-f8e4e357d914",
      "request": {
        "method": "POST",
        "url": "Observation"
      },
      "resource": {
        "code": {
          "coding": [
            {
              "code": "LP412113-5",
              "display": "Light sleep duration",
              "system": "http://loinc.org"
            }
          ]
        },
        "device": {
          "display": "PZqlc5hsYv saxony",
          "identifier": {
            "system": "http://www.gatekeeper-project.eu/identifier/saxony/samsung/device",
            "value": "PZqlc5hsYv"
          }
        },
        "identifier": [
          {
            "value": "41b4ac6e-64e6-d321-cf93-28614eaa2859"
          }
        ],
        "status": "preliminary",
        "subject": {
          "display": "user1@saxony.gatekeeper.com",
          "reference": "urn:uuid:043b270a-ca2a-11eb-ad3d-f8e4e357d914"
        },
        "valuePeriod": {
          "end": "2020-10-24T00:16:00+00:00",
          "start": "2020-10-24T00:15:00+00:00"
        },
        "resourceType": "Observation"
      }
    },
    {
      "fullUrl": "urn:uuid:043ea809-ca2a-11eb-b0dd-f8e4e357d914",
      "request": {
        "method": "POST",
        "url": "Observation"
      },
      "resource": {
        "code": {
          "coding": [
            {
              "code": "93830-8",
              "display": "Light sleep duration",
              "system": "http://loinc.org"
            }
          ]
        },
        "device": {
          "display": "PZqlc5hsYv saxony",
          "identifier": {
            "system": "http://www.gatekeeper-project.eu/identifier/saxony/samsung/device",
            "value": "PZqlc5hsYv"
          }
        },
        "identifier": [
          {
            "value": "41b4ac6e-64e6-d321-cf93-28614eaa2859"
          }
        ],
        "status": "preliminary",
        "subject": {
          "display": "user1@saxony.gatekeeper.com",
          "reference": "urn:uuid:043b270a-ca2a-11eb-ad3d-f8e4e357d914"
        },
        "valuePeriod": {
          "end": "2020-10-24T00:32:00+00:00",
          "start": "2020-10-24T00:16:00+00:00"
        },
        "resourceType": "Observation"
      }
    },
    {
      "fullUrl": "urn:uuid:043ea80a-ca2a-11eb-be94-f8e4e357d914",
      "request": {
        "method": "POST",
        "url": "Observation"
      },
      "resource": {
        "code": {
          "coding": [
            {
              "code": "93831-6",
              "display": "Deep sleep duration",
              "system": "http://loinc.org"
            }
          ]
        },
        "device": {
          "display": "PZqlc5hsYv saxony",
          "identifier": {
            "system": "http://www.gatekeeper-project.eu/identifier/saxony/samsung/device",
            "value": "PZqlc5hsYv"
          }
        },
        "identifier": [
          {
            "value": "41b4ac6e-64e6-d321-cf93-28614eaa2859"
          }
        ],
        "status": "preliminary",
        "subject": {
          "display": "user1@saxony.gatekeeper.com",
          "reference": "urn:uuid:043b270a-ca2a-11eb-ad3d-f8e4e357d914"
        },
        "valuePeriod": {
          "end": "2020-10-24T00:39:00+00:00",
          "start": "2020-10-24T00:32:00+00:00"
        },
        "resourceType": "Observation"
      }
    },
    {
      "fullUrl": "urn:uuid:043ecf00-ca2a-11eb-8f67-f8e4e357d914",
      "request": {
        "method": "POST",
        "url": "Observation"
      },
      "resource": {
        "code": {
          "coding": [
            {
              "code": "9108-2",
              "display": "Fluid intake total 24 hour",
              "system": "http://loinc.org"
            }
          ]
        },
        "device": {
          "display": "0 saxony",
          "identifier": {
            "system": "http://www.gatekeeper-project.eu/identifier/saxony/samsung/device",
            "value": "0"
          }
        },
        "valuePeriod": {
          "start": "2020-10-01T00:00:00+00:00",
          "end": "2021-03-30T23:59:00+00:00"
        },
        "status": "preliminary",
        "subject": {
          "display": "user1@saxony.gatekeeper.com",
          "reference": "urn:uuid:043b270a-ca2a-11eb-ad3d-f8e4e357d914"
        },
        "valueQuantity": {
          "code": "ml/(24.h)",
          "system": "http://unitisofmeasure.org/",
          "unit": "ml/(24.h)",
          "value": 0
        },
        "resourceType": "Observation"
      }
    }
  ],
  "timestamp": "2021-02-01T17:34:40+00:00",
  "type": "transaction",
  "resourceType": "Bundle"
}