{"entry":[{"request":{"method":"POST","url":"Patient"},"resource":{"identifier":[{"system":"https://opensource.samsung.com/projects/helifit/identifier","systemDomainName":"opensource_samsung_com","value":"user12@puglia.gatekeeper.com"},{"system":"https://opensource.samsung.com/projects/helifit/identifier","systemDomainName":"opensource_samsung_com","value":"60b36ccc05f8c40fc9428105"}],"id":"60b36ccc05f8c40fc9428105","resourceType":"Patient"},"fullUrl":"https://opensource.samsung.com/projects/helifit/patient/user12@puglia.gatekeeper.com"},{"request":{"method":"POST","url":"Observation"},"resource":{"identifier":[{"system":"https://opensource.samsung.com/projects/helifit/identifier","value":"Observation/647848493030303030"}],"code":{"coding":[{"system":"http://local-system","code":"heart_rate_sampling","systemDomainName":"local-system","display":"Heart Rate Sampling"}]},"effectivePeriod":{"start":"2021-06-18T00:00:00+03:00","end":"2021-06-18T00:59:59+03:00"},"subject":{"reference":"https://opensource.samsung.com/projects/helifit/patient/user12@puglia.gatekeeper.com","display":"60b36ccc05f8c40fc9428105"},"id":"647848493030303030","device":{"identifier":{"system":"https://opensource.samsung.com/projects/helifit/device","value":"XaIq54it7a"}},"resourceType":"Observation","status":"final"},"fullUrl":"https://opensource.samsung.com/projects/helifit/observation/647848493030303030"},{"request":{"method":"POST","url":"Observation"},"resource":{"identifier":[{"system":"https://opensource.samsung.com/projects/helifit/identifier","value":"647848493030303030-heart-rate"}],"code":{"coding":[{"system":"http://local-system","code":"heart_rate_instantaneous","systemDomainName":"local-system","display":"Heart Rate Instantaneous"}]},"effectivePeriod":{"start":"2021-06-18T00:00:00+03:00","end":"2021-06-18T00:59:59+03:00"},"subject":{"reference":"https://opensource.samsung.com/projects/helifit/patient/user12@puglia.gatekeeper.com","display":"60b36ccc05f8c40fc9428105"},"derivedFrom":[{"reference":"https://opensource.samsung.com/projects/helifit/observation/647848493030303030","display":"647848493030303030"}],"id":"647848493030303030-heart-rate","device":{"identifier":{"system":"https://opensource.samsung.com/projects/helifit/device","value":"XaIq54it7a"}},"resourceType":"Observation","status":"final","valueQuantity":{"unit":"beats/min","system":"http://unitsofmeasure.org","code":"{Beats}/min","value":74}},"fullUrl":"https://opensource.samsung.com/projects/helifit/observation/647848493030303030-heart-rate"},{"request":{"method":"POST","url":"Observation"},"resource":{"identifier":[{"system":"https://opensource.samsung.com/projects/helifit/identifier","value":"647848493030303030-heart-rate-0"}],"code":{"coding":[{"system":"http://samsung/live-data","code":"live_data_heart_rate_instantaneous","systemDomainName":"samsung","display":"Live data heart rate instantaneous"}]},"effectivePeriod":{"start":"2021-06-18T02:00:00+03:00","end":"2021-06-18T02:00:59+03:00"},"subject":{"reference":"https://opensource.samsung.com/projects/helifit/patient/user12@puglia.gatekeeper.com","display":"60b36ccc05f8c40fc9428105"},"derivedFrom":[{"reference":"https://opensource.samsung.com/projects/helifit/observation/647848493030303030-heart-rate","display":"647848493030303030-heart-rate"}],"id":"647848493030303030-heart-rate-0","device":{"identifier":{"system":"https://opensource.samsung.com/projects/helifit/device","value":"XaIq54it7a"}},"resourceType":"Observation","status":"final","valueQuantity":{"unit":"beats/min","system":"http://unitsofmeasure.org","code":"{Beats}/min","value":80}},"fullUrl":"https://opensource.samsung.com/projects/helifit/observation/647848493030303030-heart-rate-0"},{"request":{"method":"POST","url":"Observation"},"resource":{"identifier":[{"system":"https://opensource.samsung.com/projects/helifit/identifier","value":"647848493030303030-heart-rate-1"}],"code":{"coding":[{"system":"http://samsung/live-data","code":"live_data_heart_rate_instantaneous","systemDomainName":"samsung","display":"Live data heart rate instantaneous"}]},"effectivePeriod":{"start":"2021-06-18T02:01:00+03:00","end":"2021-06-18T02:01:59+03:00"},"subject":{"reference":"https://opensource.samsung.com/projects/helifit/patient/user12@puglia.gatekeeper.com","display":"60b36ccc05f8c40fc9428105"},"derivedFrom":[{"reference":"https://opensource.samsung.com/projects/helifit/observation/647848493030303030-heart-rate","display":"647848493030303030-heart-rate"}],"id":"647848493030303030-heart-rate-1","device":{"identifier":{"system":"https://opensource.samsung.com/projects/helifit/device","value":"XaIq54it7a"}},"resourceType":"Observation","status":"final","valueQuantity":{"unit":"beats/min","system":"http://unitsofmeasure.org","code":"{Beats}/min","value":78}},"fullUrl":"https://opensource.samsung.com/projects/helifit/observation/647848493030303030-heart-rate-1"},{"request":{"method":"POST","url":"Observation"},"resource":{"identifier":[{"system":"https://opensource.samsung.com/projects/helifit/identifier","value":"647848493030303030-heart-rate-2"}],"code":{"coding":[{"system":"http://samsung/live-data","code":"live_data_heart_rate_instantaneous","systemDomainName":"samsung","display":"Live data heart rate instantaneous"}]},"effectivePeriod":{"start":"2021-06-18T02:59:00+03:00","end":"2021-06-18T02:59:59+03:00"},"subject":{"reference":"https://opensource.samsung.com/projects/helifit/patient/user12@puglia.gatekeeper.com","display":"60b36ccc05f8c40fc9428105"},"derivedFrom":[{"reference":"https://opensource.samsung.com/projects/helifit/observation/647848493030303030-heart-rate","display":"647848493030303030-heart-rate"}],"id":"647848493030303030-heart-rate-2","device":{"identifier":{"system":"https://opensource.samsung.com/projects/helifit/device","value":"XaIq54it7a"}},"resourceType":"Observation","status":"final","valueQuantity":{"unit":"beats/min","system":"http://unitsofmeasure.org","code":"{Beats}/min","value":72}},"fullUrl":"https://opensource.samsung.com/projects/helifit/observation/647848493030303030-heart-rate-2"},{"request":{"method":"POST","url":"Observation"},"resource":{"identifier":[{"system":"https://opensource.samsung.com/projects/helifit/identifier","value":"647848493030303030-heart-rate-min"}],"code":{"coding":[{"system":"http://local-system","code":"heart_rate_min","systemDomainName":"local-system","display":"Min Heart Rate"}]},"effectivePeriod":{"start":"2021-06-18T00:00:00+03:00","end":"2021-06-18T00:59:59+03:00"},"subject":{"reference":"https://opensource.samsung.com/projects/helifit/patient/user12@puglia.gatekeeper.com","display":"60b36ccc05f8c40fc9428105"},"derivedFrom":[{"reference":"https://opensource.samsung.com/projects/helifit/observation/647848493030303030","display":"647848493030303030"}],"id":"647848493030303030-heart-rate-min","device":{"identifier":{"system":"https://opensource.samsung.com/projects/helifit/device","value":"XaIq54it7a"}},"resourceType":"Observation","status":"final","valueQuantity":{"unit":"beats/min","system":"http://unitsofmeasure.org","code":"{Beats}/min","value":69}},"fullUrl":"https://opensource.samsung.com/projects/helifit/observation/647848493030303030-heart-rate-min"},{"request":{"method":"POST","url":"Observation"},"resource":{"identifier":[{"system":"https://opensource.samsung.com/projects/helifit/identifier","value":"647848493030303030-heart-rate-min-0"}],"code":{"coding":[{"system":"http://samsung/live-data","code":"live_data_heart_rate_min","systemDomainName":"samsung","display":"Live data min heart rate"}]},"effectivePeriod":{"start":"2021-06-18T02:00:00+03:00","end":"2021-06-18T02:00:59+03:00"},"subject":{"reference":"https://opensource.samsung.com/projects/helifit/patient/user12@puglia.gatekeeper.com","display":"60b36ccc05f8c40fc9428105"},"derivedFrom":[{"reference":"https://opensource.samsung.com/projects/helifit/observation/647848493030303030-heart-rate-min","display":"647848493030303030-heart-rate-min"}],"id":"647848493030303030-heart-rate-min-0","device":{"identifier":{"system":"https://opensource.samsung.com/projects/helifit/device","value":"XaIq54it7a"}},"resourceType":"Observation","status":"final","valueQuantity":{"unit":"beats/min","system":"http://unitsofmeasure.org","code":"{Beats}/min","value":76}},"fullUrl":"https://opensource.samsung.com/projects/helifit/observation/647848493030303030-heart-rate-min-0"},{"request":{"method":"POST","url":"Observation"},"resource":{"identifier":[{"system":"https://opensource.samsung.com/projects/helifit/identifier","value":"647848493030303030-heart-rate-min-1"}],"code":{"coding":[{"system":"http://samsung/live-data","code":"live_data_heart_rate_min","systemDomainName":"samsung","display":"Live data min heart rate"}]},"effectivePeriod":{"start":"2021-06-18T02:01:00+03:00","end":"2021-06-18T02:01:59+03:00"},"subject":{"reference":"https://opensource.samsung.com/projects/helifit/patient/user12@puglia.gatekeeper.com","display":"60b36ccc05f8c40fc9428105"},"derivedFrom":[{"reference":"https://opensource.samsung.com/projects/helifit/observation/647848493030303030-heart-rate-min","display":"647848493030303030-heart-rate-min"}],"id":"647848493030303030-heart-rate-min-1","device":{"identifier":{"system":"https://opensource.samsung.com/projects/helifit/device","value":"XaIq54it7a"}},"resourceType":"Observation","status":"final","valueQuantity":{"unit":"beats/min","system":"http://unitsofmeasure.org","code":"{Beats}/min","value":77}},"fullUrl":"https://opensource.samsung.com/projects/helifit/observation/647848493030303030-heart-rate-min-1"},{"request":{"method":"POST","url":"Observation"},"resource":{"identifier":[{"system":"https://opensource.samsung.com/projects/helifit/identifier","value":"647848493030303030-heart-rate-min-2"}],"code":{"coding":[{"system":"http://samsung/live-data","code":"live_data_heart_rate_min","systemDomainName":"samsung","display":"Live data min heart rate"}]},"effectivePeriod":{"start":"2021-06-18T02:59:00+03:00","end":"2021-06-18T02:59:59+03:00"},"subject":{"reference":"https://opensource.samsung.com/projects/helifit/patient/user12@puglia.gatekeeper.com","display":"60b36ccc05f8c40fc9428105"},"derivedFrom":[{"reference":"https://opensource.samsung.com/projects/helifit/observation/647848493030303030-heart-rate-min","display":"647848493030303030-heart-rate-min"}],"id":"647848493030303030-heart-rate-min-2","device":{"identifier":{"system":"https://opensource.samsung.com/projects/helifit/device","value":"XaIq54it7a"}},"resourceType":"Observation","status":"final","valueQuantity":{"unit":"beats/min","system":"http://unitsofmeasure.org","code":"{Beats}/min","value":72}},"fullUrl":"https://opensource.samsung.com/projects/helifit/observation/647848493030303030-heart-rate-min-2"},{"request":{"method":"POST","url":"Observation"},"resource":{"identifier":[{"system":"https://opensource.samsung.com/projects/helifit/identifier","value":"647848493030303030-heart-rate-max"}],"code":{"coding":[{"system":"http://local-system","code":"heart_rate_max","systemDomainName":"local-system","display":"Max Heart Rate"}]},"effectivePeriod":{"start":"2021-06-18T00:00:00+03:00","end":"2021-06-18T00:59:59+03:00"},"subject":{"reference":"https://opensource.samsung.com/projects/helifit/patient/user12@puglia.gatekeeper.com","display":"60b36ccc05f8c40fc9428105"},"derivedFrom":[{"reference":"https://opensource.samsung.com/projects/helifit/observation/647848493030303030","display":"647848493030303030"}],"id":"647848493030303030-heart-rate-max","device":{"identifier":{"system":"https://opensource.samsung.com/projects/helifit/device","value":"XaIq54it7a"}},"resourceType":"Observation","status":"final","valueQuantity":{"unit":"beats/min","system":"http://unitsofmeasure.org","code":"{Beats}/min","value":89}},"fullUrl":"https://opensource.samsung.com/projects/helifit/observation/647848493030303030-heart-rate-max"},{"request":{"method":"POST","url":"Observation"},"resource":{"identifier":[{"system":"https://opensource.samsung.com/projects/helifit/identifier","value":"647848493030303030-heart-rate-max-0"}],"code":{"coding":[{"system":"http://samsung/live-data","code":"live_data_heart_rate_max","systemDomainName":"samsung","display":"Live data max heart rate"}]},"effectivePeriod":{"start":"2021-06-18T02:00:00+03:00","end":"2021-06-18T02:00:59+03:00"},"subject":{"reference":"https://opensource.samsung.com/projects/helifit/patient/user12@puglia.gatekeeper.com","display":"60b36ccc05f8c40fc9428105"},"derivedFrom":[{"reference":"https://opensource.samsung.com/projects/helifit/observation/647848493030303030-heart-rate-max","display":"647848493030303030-heart-rate-max"}],"id":"647848493030303030-heart-rate-max-0","device":{"identifier":{"system":"https://opensource.samsung.com/projects/helifit/device","value":"XaIq54it7a"}},"resourceType":"Observation","status":"final","valueQuantity":{"unit":"beats/min","system":"http://unitsofmeasure.org","code":"{Beats}/min","value":86}},"fullUrl":"https://opensource.samsung.com/projects/helifit/observation/647848493030303030-heart-rate-max-0"},{"request":{"method":"POST","url":"Observation"},"resource":{"identifier":[{"system":"https://opensource.samsung.com/projects/helifit/identifier","value":"647848493030303030-heart-rate-max-1"}],"code":{"coding":[{"system":"http://samsung/live-data","code":"live_data_heart_rate_max","systemDomainName":"samsung","display":"Live data max heart rate"}]},"effectivePeriod":{"start":"2021-06-18T02:01:00+03:00","end":"2021-06-18T02:01:59+03:00"},"subject":{"reference":"https://opensource.samsung.com/projects/helifit/patient/user12@puglia.gatekeeper.com","display":"60b36ccc05f8c40fc9428105"},"derivedFrom":[{"reference":"https://opensource.samsung.com/projects/helifit/observation/647848493030303030-heart-rate-max","display":"647848493030303030-heart-rate-max"}],"id":"647848493030303030-heart-rate-max-1","device":{"identifier":{"system":"https://opensource.samsung.com/projects/helifit/device","value":"XaIq54it7a"}},"resourceType":"Observation","status":"final","valueQuantity":{"unit":"beats/min","system":"http://unitsofmeasure.org","code":"{Beats}/min","value":81}},"fullUrl":"https://opensource.samsung.com/projects/helifit/observation/647848493030303030-heart-rate-max-1"},{"request":{"method":"POST","url":"Observation"},"resource":{"identifier":[{"system":"https://opensource.samsung.com/projects/helifit/identifier","value":"647848493030303030-heart-rate-max-2"}],"code":{"coding":[{"system":"http://samsung/live-data","code":"live_data_heart_rate_max","systemDomainName":"samsung","display":"Live data max heart rate"}]},"effectivePeriod":{"start":"2021-06-18T02:59:00+03:00","end":"2021-06-18T02:59:59+03:00"},"subject":{"reference":"https://opensource.samsung.com/projects/helifit/patient/user12@puglia.gatekeeper.com","display":"60b36ccc05f8c40fc9428105"},"derivedFrom":[{"reference":"https://opensource.samsung.com/projects/helifit/observation/647848493030303030-heart-rate-max","display":"647848493030303030-heart-rate-max"}],"id":"647848493030303030-heart-rate-max-2","device":{"identifier":{"system":"https://opensource.samsung.com/projects/helifit/device","value":"XaIq54it7a"}},"resourceType":"Observation","status":"final","valueQuantity":{"unit":"beats/min","system":"http://unitsofmeasure.org","code":"{Beats}/min","value":73}},"fullUrl":"https://opensource.samsung.com/projects/helifit/observation/647848493030303030-heart-rate-max-2"},{"request":{"method":"POST","url":"Observation"},"resource":{"identifier":[{"system":"https://opensource.samsung.com/projects/helifit/identifier","value":"647848493030303030-heart-beat-count"}],"code":{"coding":[{"system":"http://local-system","code":"heart_beat_count","systemDomainName":"local-system","display":"Heart Beat Count"}]},"effectivePeriod":{"start":"2021-06-18T00:00:00+03:00","end":"2021-06-18T00:59:59+03:00"},"subject":{"reference":"https://opensource.samsung.com/projects/helifit/patient/user12@puglia.gatekeeper.com","display":"60b36ccc05f8c40fc9428105"},"derivedFrom":[{"reference":"https://opensource.samsung.com/projects/helifit/observation/647848493030303030","display":"647848493030303030"}],"id":"647848493030303030-heart-beat-count","device":{"identifier":{"system":"https://opensource.samsung.com/projects/helifit/device","value":"XaIq54it7a"}},"resourceType":"Observation","status":"final","valueQuantity":{"unit":"beats/min","system":"http://unitsofmeasure.org","code":"beats/min","value":145}},"fullUrl":"https://opensource.samsung.com/projects/helifit/observation/647848493030303030-heart-beat-count"}],"type":"transaction","resourceType":"Bundle"}