{
    "resourceType": "Bundle",
    "type": "transaction",
    "entry": [
        {
            "fullUrl": "https://opensource.samsung.com/projects/helifit/patient/user12@puglia.gatekeeper.com",
            "resource": {
                "resourceType": "Patient",
                "id": "60b36ccc05f8c40fc9428105",
                "identifier": [
                    {
                        "system": "https://opensource.samsung.com/projects/helifit/identifier",
                        "value": "user12@puglia.gatekeeper.com"
                    },
                    {
                        "system": "https://opensource.samsung.com/projects/helifit/identifier",
                        "value": "60b36ccc05f8c40fc9428105"
                    }
                ]
            },
            "request": {
                "method": "POST",
                "url": "Patient"
            }
        },
        {
            "fullUrl": "https://opensource.samsung.com/projects/helifit/observation/fuisgjsdgcsdkugfsk",
            "resource": {
                "resourceType": "Observation",
                "id": "fuisgjsdgcsdkugfsk",
                "identifier": [
                    {
                        "system": "https://opensource.samsung.com/projects/helifit/identifier",
                        "value": "Observation/fuisgjsdgcsdkugfsk"
                    }
                ],
                "status": "final",
                "code": {
                    "coding": [
                        {
                            "system": "http://loinc.org",
                            "code": "LA11834-1",
                            "display": "Exercise"
                        },
                        {
                            "system": "http://loinc.org",
                            "code": "82948-1",
                            "display": "Walking"
                        }
                    ]
                },
                "subject": {
                    "reference": "https://opensource.samsung.com/projects/helifit/patient/user12@puglia.gatekeeper.com",
                    "display": "60b36ccc05f8c40fc9428105"
                },
                "effectivePeriod": {
                    "start": "2021-06-18T07:47:38+03:00",
                    "end": "2021-06-18T08:03:09+03:00"
                },
                "device": {
                    "identifier": {
                        "system": "https://opensource.samsung.com/projects/helifit/device",
                        "value": "XaIq54it7a"
                    }
                }
            },
            "request": {
                "method": "POST",
                "url": "Observation"
            }
        },
        {
            "fullUrl": "https://opensource.samsung.com/projects/helifit/observation/fuisgjsdgcsdkugfsk-calorie",
            "resource": {
                "resourceType": "Observation",
                "id": "fuisgjsdgcsdkugfsk-calorie",
                "identifier": [
                    {
                        "system": "https://opensource.samsung.com/projects/helifit/identifier",
                        "value": "fuisgjsdgcsdkugfsk-calorie"
                    }
                ],
                "status": "final",
                "code": {
                    "coding": [
                        {
                            "system": "http://local-system",
                            "code": "calorie",
                            "display": "Calorie"
                        }
                    ]
                },
                "subject": {
                    "reference": "https://opensource.samsung.com/projects/helifit/patient/user12@puglia.gatekeeper.com",
                    "display": "60b36ccc05f8c40fc9428105"
                },
                "effectivePeriod": {
                    "start": "2021-06-18T07:47:38+03:00",
                    "end": "2021-06-18T08:03:09+03:00"
                },
                "device": {
                    "identifier": {
                        "system": "https://opensource.samsung.com/projects/helifit/device",
                        "value": "XaIq54it7a"
                    }
                },
                "derivedFrom": [
                    {
                        "reference": "https://opensource.samsung.com/projects/helifit/observation/fuisgjsdgcsdkugfsk",
                        "display": "fuisgjsdgcsdkugfsk"
                    }
                ],
                "component": [
                    {
                        "code": {
                            "coding": [
                                {
                                    "system": "http://local-system",
                                    "code": "calorie",
                                    "display": "Calorie"
                                }
                            ]
                        },
                        "valueQuantity": {
                            "value": 71.0,
                            "unit": "kcal/s",
                            "system": "http://unitsofmeasure.org",
                            "code": "kcal/s"
                        }
                    },
                    {
                        "code": {
                            "coding": [
                                {
                                    "system": "http://local-system",
                                    "code": "mean_caloricburn_rate",
                                    "display": "Mean caloric burn rate"
                                }
                            ]
                        },
                        "valueQuantity": {
                            "value": 98234,
                            "unit": "kcal/s",
                            "system": "http://unitsofmeasure.org",
                            "code": "kcal/s"
                        }
                    },
                    {
                        "code": {
                            "coding": [
                                {
                                    "system": "http://local-system",
                                    "code": "max_caloricburn_rate",
                                    "display": "Max caloric burn rate"
                                }
                            ]
                        },
                        "valueQuantity": {
                            "value": 98234,
                            "unit": "kcal/s",
                            "system": "http://unitsofmeasure.org",
                            "code": "kcal/s"
                        }
                    }
                ]
            },
            "request": {
                "method": "POST",
                "url": "Observation"
            }
        },
        {
            "fullUrl": "https://opensource.samsung.com/projects/helifit/observation/fuisgjsdgcsdkugfsk-count",
            "resource": {
                "resourceType": "Observation",
                "id": "fuisgjsdgcsdkugfsk-count",
                "identifier": [
                    {
                        "system": "https://opensource.samsung.com/projects/helifit/identifier",
                        "value": "fuisgjsdgcsdkugfsk-count"
                    }
                ],
                "status": "final",
                "code": {
                    "coding": [
                        {
                            "system": "http://local-system",
                            "code": "count",
                            "display": "Count"
                        }
                    ]
                },
                "subject": {
                    "reference": "https://opensource.samsung.com/projects/helifit/patient/user12@puglia.gatekeeper.com",
                    "display": "60b36ccc05f8c40fc9428105"
                },
                "effectivePeriod": {
                    "start": "2021-06-18T07:47:38+03:00",
                    "end": "2021-06-18T08:03:09+03:00"
                },
                "device": {
                    "identifier": {
                        "system": "https://opensource.samsung.com/projects/helifit/device",
                        "value": "XaIq54it7a"
                    }
                },
                "derivedFrom": [
                    {
                        "reference": "https://opensource.samsung.com/projects/helifit/observation/fuisgjsdgcsdkugfsk",
                        "display": "fuisgjsdgcsdkugfsk"
                    }
                ],
                "component": [
                    {
                        "code": {
                            "coding": [
                                {
                                    "system": "http://local-system",
                                    "code": "count",
                                    "display": "Count"
                                }
                            ]
                        },
                        "valueQuantity": {
                            "value": 985789,
                            "unit": "...",
                            "system": "http://unitsofmeasure.org",
                            "code": "..."
                        }
                    },
                    {
                        "code": {
                            "coding": [
                                {
                                    "system": "http://local-system",
                                    "code": "count_type",
                                    "display": "Count type"
                                }
                            ]
                        },
                        "valueQuantity": {
                            "value": 30001
                        }
                    }
                ]
            },
            "request": {
                "method": "POST",
                "url": "Observation"
            }
        },
        {
            "fullUrl": "https://opensource.samsung.com/projects/helifit/observation/fuisgjsdgcsdkugfsk-count-0",
            "resource": {
                "resourceType": "Observation",
                "id": "fuisgjsdgcsdkugfsk-count-0",
                "identifier": [
                    {
                        "system": "https://opensource.samsung.com/projects/helifit/identifier",
                        "value": "fuisgjsdgcsdkugfsk-count-0"
                    }
                ],
                "status": "final",
                "code": {
                    "coding": [
                        {
                            "system": "http://samsung/live-data",
                            "code": "live_data_count",
                            "display": "Live data count"
                        }
                    ]
                },
                "subject": {
                    "reference": "https://opensource.samsung.com/projects/helifit/patient/user12@puglia.gatekeeper.com",
                    "display": "60b36ccc05f8c40fc9428105"
                },
                "effectivePeriod": {
                    "start": "2015-01-28T16:58:16+02:00",
                    "end": "2021-06-18T09:47:59+03:00"
                },
                "valueQuantity": {
                    "value": 83,
                    "unit": "...",
                    "system": "http://unitsofmeasure.org",
                    "code": "..."
                },
                "device": {
                    "identifier": {
                        "system": "https://opensource.samsung.com/projects/helifit/device",
                        "value": "XaIq54it7a"
                    }
                },
                "derivedFrom": [
                    {
                        "reference": "https://opensource.samsung.com/projects/helifit/observation/fuisgjsdgcsdkugfsk-count",
                        "display": "fuisgjsdgcsdkugfsk-count"
                    }
                ]
            },
            "request": {
                "method": "POST",
                "url": "Observation"
            }
        },
        {
            "fullUrl": "https://opensource.samsung.com/projects/helifit/observation/fuisgjsdgcsdkugfsk-count-1",
            "resource": {
                "resourceType": "Observation",
                "id": "fuisgjsdgcsdkugfsk-count-1",
                "identifier": [
                    {
                        "system": "https://opensource.samsung.com/projects/helifit/identifier",
                        "value": "fuisgjsdgcsdkugfsk-count-1"
                    }
                ],
                "status": "final",
                "code": {
                    "coding": [
                        {
                            "system": "http://samsung/live-data",
                            "code": "live_data_count",
                            "display": "Live data count"
                        }
                    ]
                },
                "subject": {
                    "reference": "https://opensource.samsung.com/projects/helifit/patient/user12@puglia.gatekeeper.com",
                    "display": "60b36ccc05f8c40fc9428105"
                },
                "effectivePeriod": {
                    "start": "2021-06-18T10:03:00+03:00",
                    "end": "2021-06-18T10:03:59+03:00"
                },
                "valueQuantity": {
                    "value": 85,
                    "unit": "...",
                    "system": "http://unitsofmeasure.org",
                    "code": "..."
                },
                "device": {
                    "identifier": {
                        "system": "https://opensource.samsung.com/projects/helifit/device",
                        "value": "XaIq54it7a"
                    }
                },
                "derivedFrom": [
                    {
                        "reference": "https://opensource.samsung.com/projects/helifit/observation/fuisgjsdgcsdkugfsk-count",
                        "display": "fuisgjsdgcsdkugfsk-count"
                    }
                ]
            },
            "request": {
                "method": "POST",
                "url": "Observation"
            }
        },
        {
            "fullUrl": "https://opensource.samsung.com/projects/helifit/observation/fuisgjsdgcsdkugfsk-distance",
            "resource": {
                "resourceType": "Observation",
                "id": "fuisgjsdgcsdkugfsk-distance",
                "identifier": [
                    {
                        "system": "https://opensource.samsung.com/projects/helifit/identifier",
                        "value": "fuisgjsdgcsdkugfsk-distance"
                    }
                ],
                "status": "final",
                "code": {
                    "coding": [
                        {
                            "system": "http://local-system",
                            "code": "distance",
                            "display": "Distance"
                        }
                    ]
                },
                "subject": {
                    "reference": "https://opensource.samsung.com/projects/helifit/patient/user12@puglia.gatekeeper.com",
                    "display": "60b36ccc05f8c40fc9428105"
                },
                "effectivePeriod": {
                    "start": "2021-06-18T07:47:38+03:00",
                    "end": "2021-06-18T08:03:09+03:00"
                },
                "device": {
                    "identifier": {
                        "system": "https://opensource.samsung.com/projects/helifit/device",
                        "value": "XaIq54it7a"
                    }
                },
                "derivedFrom": [
                    {
                        "reference": "https://opensource.samsung.com/projects/helifit/observation/fuisgjsdgcsdkugfsk",
                        "display": "fuisgjsdgcsdkugfsk"
                    }
                ],
                "component": [
                    {
                        "code": {
                            "coding": [
                                {
                                    "system": "http://local-system",
                                    "code": "distance",
                                    "display": "Distance"
                                }
                            ]
                        },
                        "valueQuantity": {
                            "value": 250,
                            "unit": "m",
                            "system": "http://unitsofmeasure.org",
                            "code": "m"
                        }
                    },
                    {
                        "code": {
                            "coding": [
                                {
                                    "system": "http://local-system",
                                    "code": "incline_distance",
                                    "display": "Incline distance"
                                }
                            ]
                        },
                        "valueQuantity": {
                            "value": 8924378,
                            "unit": "m",
                            "system": "http://unitsofmeasure.org",
                            "code": "m"
                        }
                    },
                    {
                        "code": {
                            "coding": [
                                {
                                    "system": "http://local-system",
                                    "code": "decline_distance",
                                    "display": "Decline distance"
                                }
                            ]
                        },
                        "valueQuantity": {
                            "value": 8936785,
                            "unit": "m",
                            "system": "http://unitsofmeasure.org",
                            "code": "m"
                        }
                    }
                ]
            },
            "request": {
                "method": "POST",
                "url": "Observation"
            }
        },
        {
            "fullUrl": "https://opensource.samsung.com/projects/helifit/observation/fuisgjsdgcsdkugfsk-distance-0",
            "resource": {
                "resourceType": "Observation",
                "id": "fuisgjsdgcsdkugfsk-distance-0",
                "identifier": [
                    {
                        "system": "https://opensource.samsung.com/projects/helifit/identifier",
                        "value": "fuisgjsdgcsdkugfsk-distance-0"
                    }
                ],
                "status": "final",
                "code": {
                    "coding": [
                        {
                            "system": "http://samsung/live-data",
                            "code": "live_data_distance",
                            "display": "Live data distance"
                        }
                    ]
                },
                "subject": {
                    "reference": "https://opensource.samsung.com/projects/helifit/patient/user12@puglia.gatekeeper.com",
                    "display": "60b36ccc05f8c40fc9428105"
                },
                "effectivePeriod": {
                    "start": "2015-01-28T16:58:16+02:00",
                    "end": "2021-06-18T09:47:59+03:00"
                },
                "valueQuantity": {
                    "value": 250,
                    "unit": "m",
                    "system": "http://unitsofmeasure.org",
                    "code": "m"
                },
                "device": {
                    "identifier": {
                        "system": "https://opensource.samsung.com/projects/helifit/device",
                        "value": "XaIq54it7a"
                    }
                },
                "derivedFrom": [
                    {
                        "reference": "https://opensource.samsung.com/projects/helifit/observation/fuisgjsdgcsdkugfsk-distance",
                        "display": "fuisgjsdgcsdkugfsk-distance"
                    }
                ]
            },
            "request": {
                "method": "POST",
                "url": "Observation"
            }
        },
        {
            "fullUrl": "https://opensource.samsung.com/projects/helifit/observation/fuisgjsdgcsdkugfsk-distance-1",
            "resource": {
                "resourceType": "Observation",
                "id": "fuisgjsdgcsdkugfsk-distance-1",
                "identifier": [
                    {
                        "system": "https://opensource.samsung.com/projects/helifit/identifier",
                        "value": "fuisgjsdgcsdkugfsk-distance-1"
                    }
                ],
                "status": "final",
                "code": {
                    "coding": [
                        {
                            "system": "http://samsung/live-data",
                            "code": "live_data_distance",
                            "display": "Live data distance"
                        }
                    ]
                },
                "subject": {
                    "reference": "https://opensource.samsung.com/projects/helifit/patient/user12@puglia.gatekeeper.com",
                    "display": "60b36ccc05f8c40fc9428105"
                },
                "effectivePeriod": {
                    "start": "2021-06-18T10:03:00+03:00",
                    "end": "2021-06-18T10:03:59+03:00"
                },
                "valueQuantity": {
                    "value": 250,
                    "unit": "m",
                    "system": "http://unitsofmeasure.org",
                    "code": "m"
                },
                "device": {
                    "identifier": {
                        "system": "https://opensource.samsung.com/projects/helifit/device",
                        "value": "XaIq54it7a"
                    }
                },
                "derivedFrom": [
                    {
                        "reference": "https://opensource.samsung.com/projects/helifit/observation/fuisgjsdgcsdkugfsk-distance",
                        "display": "fuisgjsdgcsdkugfsk-distance"
                    }
                ]
            },
            "request": {
                "method": "POST",
                "url": "Observation"
            }
        },
        {
            "fullUrl": "https://opensource.samsung.com/projects/helifit/observation/fuisgjsdgcsdkugfsk-speed",
            "resource": {
                "resourceType": "Observation",
                "id": "fuisgjsdgcsdkugfsk-speed",
                "identifier": [
                    {
                        "system": "https://opensource.samsung.com/projects/helifit/identifier",
                        "value": "fuisgjsdgcsdkugfsk-speed"
                    }
                ],
                "status": "final",
                "code": {
                    "coding": [
                        {
                            "system": "http://local-system",
                            "code": "speed",
                            "display": "Speed"
                        }
                    ]
                },
                "subject": {
                    "reference": "https://opensource.samsung.com/projects/helifit/patient/user12@puglia.gatekeeper.com",
                    "display": "60b36ccc05f8c40fc9428105"
                },
                "effectivePeriod": {
                    "start": "2021-06-18T07:47:38+03:00",
                    "end": "2021-06-18T08:03:09+03:00"
                },
                "device": {
                    "identifier": {
                        "system": "https://opensource.samsung.com/projects/helifit/device",
                        "value": "XaIq54it7a"
                    }
                },
                "derivedFrom": [
                    {
                        "reference": "https://opensource.samsung.com/projects/helifit/observation/fuisgjsdgcsdkugfsk",
                        "display": "fuisgjsdgcsdkugfsk"
                    }
                ],
                "component": [
                    {
                        "code": {
                            "coding": [
                                {
                                    "system": "http://local-system",
                                    "code": "mean_speed",
                                    "display": "Mean speed"
                                }
                            ]
                        },
                        "valueQuantity": {
                            "value": 76887,
                            "unit": "m/s",
                            "system": "http://unitsofmeasure.org",
                            "code": "m/s"
                        }
                    },
                    {
                        "code": {
                            "coding": [
                                {
                                    "system": "http://local-system",
                                    "code": "max_speed",
                                    "display": "Max speed"
                                }
                            ]
                        },
                        "valueQuantity": {
                            "value": 983478,
                            "unit": "m/s",
                            "system": "http://unitsofmeasure.org",
                            "code": "m/s"
                        }
                    }
                ]
            },
            "request": {
                "method": "POST",
                "url": "Observation"
            }
        },
        {
            "fullUrl": "https://opensource.samsung.com/projects/helifit/observation/fuisgjsdgcsdkugfsk-speed-0",
            "resource": {
                "resourceType": "Observation",
                "id": "fuisgjsdgcsdkugfsk-speed-0",
                "identifier": [
                    {
                        "system": "https://opensource.samsung.com/projects/helifit/identifier",
                        "value": "fuisgjsdgcsdkugfsk-speed-0"
                    }
                ],
                "status": "final",
                "code": {
                    "coding": [
                        {
                            "system": "http://samsung/live-data",
                            "code": "live_data_speed",
                            "display": "Live data speed"
                        }
                    ]
                },
                "subject": {
                    "reference": "https://opensource.samsung.com/projects/helifit/patient/user12@puglia.gatekeeper.com",
                    "display": "60b36ccc05f8c40fc9428105"
                },
                "effectivePeriod": {
                    "start": "2015-01-28T16:58:16+02:00",
                    "end": "2021-06-18T09:47:59+03:00"
                },
                "valueQuantity": {
                    "value": 11.061617,
                    "unit": "m/s",
                    "system": "http://unitsofmeasure.org",
                    "code": "m/s"
                },
                "device": {
                    "identifier": {
                        "system": "https://opensource.samsung.com/projects/helifit/device",
                        "value": "XaIq54it7a"
                    }
                },
                "derivedFrom": [
                    {
                        "reference": "https://opensource.samsung.com/projects/helifit/observation/fuisgjsdgcsdkugfsk-speed",
                        "display": "fuisgjsdgcsdkugfsk-speed"
                    }
                ]
            },
            "request": {
                "method": "POST",
                "url": "Observation"
            }
        },
        {
            "fullUrl": "https://opensource.samsung.com/projects/helifit/observation/fuisgjsdgcsdkugfsk-speed-1",
            "resource": {
                "resourceType": "Observation",
                "id": "fuisgjsdgcsdkugfsk-speed-1",
                "identifier": [
                    {
                        "system": "https://opensource.samsung.com/projects/helifit/identifier",
                        "value": "fuisgjsdgcsdkugfsk-speed-1"
                    }
                ],
                "status": "final",
                "code": {
                    "coding": [
                        {
                            "system": "http://samsung/live-data",
                            "code": "live_data_speed",
                            "display": "Live data speed"
                        }
                    ]
                },
                "subject": {
                    "reference": "https://opensource.samsung.com/projects/helifit/patient/user12@puglia.gatekeeper.com",
                    "display": "60b36ccc05f8c40fc9428105"
                },
                "effectivePeriod": {
                    "start": "2021-06-18T10:03:00+03:00",
                    "end": "2021-06-18T10:03:59+03:00"
                },
                "valueQuantity": {
                    "value": 11.061617,
                    "unit": "m/s",
                    "system": "http://unitsofmeasure.org",
                    "code": "m/s"
                },
                "device": {
                    "identifier": {
                        "system": "https://opensource.samsung.com/projects/helifit/device",
                        "value": "XaIq54it7a"
                    }
                },
                "derivedFrom": [
                    {
                        "reference": "https://opensource.samsung.com/projects/helifit/observation/fuisgjsdgcsdkugfsk-speed",
                        "display": "fuisgjsdgcsdkugfsk-speed"
                    }
                ]
            },
            "request": {
                "method": "POST",
                "url": "Observation"
            }
        },
        {
            "fullUrl": "https://opensource.samsung.com/projects/helifit/observation/fuisgjsdgcsdkugfsk-cadence",
            "resource": {
                "resourceType": "Observation",
                "id": "fuisgjsdgcsdkugfsk-cadence",
                "identifier": [
                    {
                        "system": "https://opensource.samsung.com/projects/helifit/identifier",
                        "value": "fuisgjsdgcsdkugfsk-cadence"
                    }
                ],
                "status": "final",
                "code": {
                    "coding": [
                        {
                            "system": "http://local-system",
                            "code": "cadence",
                            "display": "Cadence"
                        }
                    ]
                },
                "subject": {
                    "reference": "https://opensource.samsung.com/projects/helifit/patient/user12@puglia.gatekeeper.com",
                    "display": "60b36ccc05f8c40fc9428105"
                },
                "effectivePeriod": {
                    "start": "2021-06-18T07:47:38+03:00",
                    "end": "2021-06-18T08:03:09+03:00"
                },
                "device": {
                    "identifier": {
                        "system": "https://opensource.samsung.com/projects/helifit/device",
                        "value": "XaIq54it7a"
                    }
                },
                "derivedFrom": [
                    {
                        "reference": "https://opensource.samsung.com/projects/helifit/observation/fuisgjsdgcsdkugfsk",
                        "display": "fuisgjsdgcsdkugfsk"
                    }
                ],
                "component": [
                    {
                        "code": {
                            "coding": [
                                {
                                    "system": "http://local-system",
                                    "code": "mean_cadence",
                                    "display": "Mean Cadence"
                                }
                            ]
                        },
                        "valueQuantity": {
                            "value": 65432,
                            "unit": "m/s",
                            "system": "http://unitsofmeasure.org",
                            "code": "m/s"
                        }
                    },
                    {
                        "code": {
                            "coding": [
                                {
                                    "system": "http://local-system",
                                    "code": "max_cadence",
                                    "display": "Max Cadence"
                                }
                            ]
                        },
                        "valueQuantity": {
                            "value": 89723,
                            "unit": "m/s",
                            "system": "http://unitsofmeasure.org",
                            "code": "m/s"
                        }
                    }
                ]
            },
            "request": {
                "method": "POST",
                "url": "Observation"
            }
        },
        {
            "fullUrl": "https://opensource.samsung.com/projects/helifit/observation/fuisgjsdgcsdkugfsk-cadence-0",
            "resource": {
                "resourceType": "Observation",
                "id": "fuisgjsdgcsdkugfsk-cadence-0",
                "identifier": [
                    {
                        "system": "https://opensource.samsung.com/projects/helifit/identifier",
                        "value": "fuisgjsdgcsdkugfsk-cadence-0"
                    }
                ],
                "status": "final",
                "code": {
                    "coding": [
                        {
                            "system": "http://samsung/live-data",
                            "code": "live_data_cadence",
                            "display": "Live data cadence"
                        }
                    ]
                },
                "subject": {
                    "reference": "https://opensource.samsung.com/projects/helifit/patient/user12@puglia.gatekeeper.com",
                    "display": "60b36ccc05f8c40fc9428105"
                },
                "effectivePeriod": {
                    "start": "2015-01-28T16:58:16+02:00",
                    "end": "2021-06-18T09:47:59+03:00"
                },
                "valueQuantity": {
                    "value": 94.00000,
                    "unit": "m/s",
                    "system": "http://unitsofmeasure.org",
                    "code": "m/s"
                },
                "device": {
                    "identifier": {
                        "system": "https://opensource.samsung.com/projects/helifit/device",
                        "value": "XaIq54it7a"
                    }
                },
                "derivedFrom": [
                    {
                        "reference": "https://opensource.samsung.com/projects/helifit/observation/fuisgjsdgcsdkugfsk-cadence",
                        "display": "fuisgjsdgcsdkugfsk-cadence"
                    }
                ]
            },
            "request": {
                "method": "POST",
                "url": "Observation"
            }
        },
        {
            "fullUrl": "https://opensource.samsung.com/projects/helifit/observation/fuisgjsdgcsdkugfsk-cadence-1",
            "resource": {
                "resourceType": "Observation",
                "id": "fuisgjsdgcsdkugfsk-cadence-1",
                "identifier": [
                    {
                        "system": "https://opensource.samsung.com/projects/helifit/identifier",
                        "value": "fuisgjsdgcsdkugfsk-cadence-1"
                    }
                ],
                "status": "final",
                "code": {
                    "coding": [
                        {
                            "system": "http://samsung/live-data",
                            "code": "live_data_cadence",
                            "display": "Live data cadence"
                        }
                    ]
                },
                "subject": {
                    "reference": "https://opensource.samsung.com/projects/helifit/patient/user12@puglia.gatekeeper.com",
                    "display": "60b36ccc05f8c40fc9428105"
                },
                "effectivePeriod": {
                    "start": "2021-06-18T10:03:00+03:00",
                    "end": "2021-06-18T10:03:59+03:00"
                },
                "valueQuantity": {
                    "value": 95.00001,
                    "unit": "m/s",
                    "system": "http://unitsofmeasure.org",
                    "code": "m/s"
                },
                "device": {
                    "identifier": {
                        "system": "https://opensource.samsung.com/projects/helifit/device",
                        "value": "XaIq54it7a"
                    }
                },
                "derivedFrom": [
                    {
                        "reference": "https://opensource.samsung.com/projects/helifit/observation/fuisgjsdgcsdkugfsk-cadence",
                        "display": "fuisgjsdgcsdkugfsk-cadence"
                    }
                ]
            },
            "request": {
                "method": "POST",
                "url": "Observation"
            }
        },
        {
            "fullUrl": "https://opensource.samsung.com/projects/helifit/observation/fuisgjsdgcsdkugfsk-power",
            "resource": {
                "resourceType": "Observation",
                "id": "fuisgjsdgcsdkugfsk-power",
                "identifier": [
                    {
                        "system": "https://opensource.samsung.com/projects/helifit/identifier",
                        "value": "fuisgjsdgcsdkugfsk-power"
                    }
                ],
                "status": "final",
                "code": {
                    "coding": [
                        {
                            "system": "http://local-system",
                            "code": "power",
                            "display": "Power"
                        }
                    ]
                },
                "subject": {
                    "reference": "https://opensource.samsung.com/projects/helifit/patient/user12@puglia.gatekeeper.com",
                    "display": "60b36ccc05f8c40fc9428105"
                },
                "effectivePeriod": {
                    "start": "2021-06-18T07:47:38+03:00",
                    "end": "2021-06-18T08:03:09+03:00"
                },
                "device": {
                    "identifier": {
                        "system": "https://opensource.samsung.com/projects/helifit/device",
                        "value": "XaIq54it7a"
                    }
                },
                "derivedFrom": [
                    {
                        "reference": "https://opensource.samsung.com/projects/helifit/observation/fuisgjsdgcsdkugfsk",
                        "display": "fuisgjsdgcsdkugfsk"
                    }
                ],
                "component": [
                    {
                        "code": {
                            "coding": [
                                {
                                    "system": "http://local-system",
                                    "code": "mean_power",
                                    "display": "Mean Power"
                                }
                            ]
                        },
                        "valueQuantity": {
                            "value": 7654,
                            "unit": "watt",
                            "system": "http://unitsofmeasure.org",
                            "code": "W"
                        }
                    },
                    {
                        "code": {
                            "coding": [
                                {
                                    "system": "http://local-system",
                                    "code": "max_power",
                                    "display": "Max Power"
                                }
                            ]
                        },
                        "valueQuantity": {
                            "value": 87654,
                            "unit": "watt",
                            "system": "http://unitsofmeasure.org",
                            "code": "W"
                        }
                    }
                ]
            },
            "request": {
                "method": "POST",
                "url": "Observation"
            }
        },
        {
            "fullUrl": "https://opensource.samsung.com/projects/helifit/observation/fuisgjsdgcsdkugfsk-power-0",
            "resource": {
                "resourceType": "Observation",
                "id": "fuisgjsdgcsdkugfsk-power-0",
                "identifier": [
                    {
                        "system": "https://opensource.samsung.com/projects/helifit/identifier",
                        "value": "fuisgjsdgcsdkugfsk-power-0"
                    }
                ],
                "status": "final",
                "code": {
                    "coding": [
                        {
                            "system": "http://samsung/live-data",
                            "code": "live_data_power",
                            "display": "Live data power"
                        }
                    ]
                },
                "subject": {
                    "reference": "https://opensource.samsung.com/projects/helifit/patient/user12@puglia.gatekeeper.com",
                    "display": "60b36ccc05f8c40fc9428105"
                },
                "effectivePeriod": {
                    "start": "2015-01-28T16:58:16+02:00",
                    "end": "2021-06-18T09:47:59+03:00"
                },
                "valueQuantity": {
                    "value": 99.50436,
                    "unit": "watt",
                    "system": "http://unitsofmeasure.org",
                    "code": "W"
                },
                "device": {
                    "identifier": {
                        "system": "https://opensource.samsung.com/projects/helifit/device",
                        "value": "XaIq54it7a"
                    }
                },
                "derivedFrom": [
                    {
                        "reference": "https://opensource.samsung.com/projects/helifit/observation/fuisgjsdgcsdkugfsk-power",
                        "display": "fuisgjsdgcsdkugfsk-power"
                    }
                ]
            },
            "request": {
                "method": "POST",
                "url": "Observation"
            }
        },
        {
            "fullUrl": "https://opensource.samsung.com/projects/helifit/observation/fuisgjsdgcsdkugfsk-power-1",
            "resource": {
                "resourceType": "Observation",
                "id": "fuisgjsdgcsdkugfsk-power-1",
                "identifier": [
                    {
                        "system": "https://opensource.samsung.com/projects/helifit/identifier",
                        "value": "fuisgjsdgcsdkugfsk-power-1"
                    }
                ],
                "status": "final",
                "code": {
                    "coding": [
                        {
                            "system": "http://samsung/live-data",
                            "code": "live_data_power",
                            "display": "Live data power"
                        }
                    ]
                },
                "subject": {
                    "reference": "https://opensource.samsung.com/projects/helifit/patient/user12@puglia.gatekeeper.com",
                    "display": "60b36ccc05f8c40fc9428105"
                },
                "effectivePeriod": {
                    "start": "2021-06-18T10:03:00+03:00",
                    "end": "2021-06-18T10:03:59+03:00"
                },
                "valueQuantity": {
                    "value": 99.50436,
                    "unit": "watt",
                    "system": "http://unitsofmeasure.org",
                    "code": "W"
                },
                "device": {
                    "identifier": {
                        "system": "https://opensource.samsung.com/projects/helifit/device",
                        "value": "XaIq54it7a"
                    }
                },
                "derivedFrom": [
                    {
                        "reference": "https://opensource.samsung.com/projects/helifit/observation/fuisgjsdgcsdkugfsk-power",
                        "display": "fuisgjsdgcsdkugfsk-power"
                    }
                ]
            },
            "request": {
                "method": "POST",
                "url": "Observation"
            }
        },
        {
            "fullUrl": "https://opensource.samsung.com/projects/helifit/observation/fuisgjsdgcsdkugfsk-altitude",
            "resource": {
                "resourceType": "Observation",
                "id": "fuisgjsdgcsdkugfsk-altitude",
                "identifier": [
                    {
                        "system": "https://opensource.samsung.com/projects/helifit/identifier",
                        "value": "fuisgjsdgcsdkugfsk-altitude"
                    }
                ],
                "status": "final",
                "code": {
                    "coding": [
                        {
                            "system": "http://local-system",
                            "code": "altitude",
                            "display": "Altitude"
                        }
                    ]
                },
                "subject": {
                    "reference": "https://opensource.samsung.com/projects/helifit/patient/user12@puglia.gatekeeper.com",
                    "display": "60b36ccc05f8c40fc9428105"
                },
                "effectivePeriod": {
                    "start": "2021-06-18T07:47:38+03:00",
                    "end": "2021-06-18T08:03:09+03:00"
                },
                "device": {
                    "identifier": {
                        "system": "https://opensource.samsung.com/projects/helifit/device",
                        "value": "XaIq54it7a"
                    }
                },
                "derivedFrom": [
                    {
                        "reference": "https://opensource.samsung.com/projects/helifit/observation/fuisgjsdgcsdkugfsk",
                        "display": "fuisgjsdgcsdkugfsk"
                    }
                ],
                "component": [
                    {
                        "code": {
                            "coding": [
                                {
                                    "system": "http://local-system",
                                    "code": "altitude_gain",
                                    "display": "Altitude gain"
                                }
                            ]
                        },
                        "valueQuantity": {
                            "value": 1234,
                            "unit": "m",
                            "system": "http://unitsofmeasure.org",
                            "code": "m"
                        }
                    },
                    {
                        "code": {
                            "coding": [
                                {
                                    "system": "http://local-system",
                                    "code": "altitude_loss",
                                    "display": "Altitude loss"
                                }
                            ]
                        },
                        "valueQuantity": {
                            "value": 7345,
                            "unit": "m",
                            "system": "http://unitsofmeasure.org",
                            "code": "m"
                        }
                    },
                    {
                        "code": {
                            "coding": [
                                {
                                    "system": "http://local-system",
                                    "code": "min_altitude",
                                    "display": "Min altitude"
                                }
                            ]
                        },
                        "valueQuantity": {
                            "value": 6432,
                            "unit": "m",
                            "system": "http://unitsofmeasure.org",
                            "code": "m"
                        }
                    },
                    {
                        "code": {
                            "coding": [
                                {
                                    "system": "http://local-system",
                                    "code": "max_altitude",
                                    "display": "Max Altitude"
                                }
                            ]
                        },
                        "valueQuantity": {
                            "value": 6543,
                            "unit": "m",
                            "system": "http://unitsofmeasure.org",
                            "code": "m"
                        }
                    }
                ]
            },
            "request": {
                "method": "POST",
                "url": "Observation"
            }
        },
        {
            "fullUrl": "https://opensource.samsung.com/projects/helifit/observation/fuisgjsdgcsdkugfsk-duration",
            "resource": {
                "resourceType": "Observation",
                "id": "fuisgjsdgcsdkugfsk-duration",
                "identifier": [
                    {
                        "system": "https://opensource.samsung.com/projects/helifit/identifier",
                        "value": "fuisgjsdgcsdkugfsk-duration"
                    }
                ],
                "status": "final",
                "code": {
                    "coding": [
                        {
                            "system": "http://local-system",
                            "code": "duration",
                            "display": "Duration"
                        }
                    ]
                },
                "subject": {
                    "reference": "https://opensource.samsung.com/projects/helifit/patient/user12@puglia.gatekeeper.com",
                    "display": "60b36ccc05f8c40fc9428105"
                },
                "effectivePeriod": {
                    "start": "2021-06-18T07:47:38+03:00",
                    "end": "2021-06-18T08:03:09+03:00"
                },
                "valueQuantity": {
                    "value": 930720,
                    "unit": "s",
                    "system": "http://unitsofmeasure.org",
                    "code": "s"
                },
                "device": {
                    "identifier": {
                        "system": "https://opensource.samsung.com/projects/helifit/device",
                        "value": "XaIq54it7a"
                    }
                },
                "derivedFrom": [
                    {
                        "reference": "https://opensource.samsung.com/projects/helifit/observation/fuisgjsdgcsdkugfsk",
                        "display": "fuisgjsdgcsdkugfsk"
                    }
                ]
            },
            "request": {
                "method": "POST",
                "url": "Observation"
            }
        },
        {
            "fullUrl": "https://opensource.samsung.com/projects/helifit/observation/fuisgjsdgcsdkugfsk-heart-rate",
            "resource": {
                "resourceType": "Observation",
                "id": "fuisgjsdgcsdkugfsk-heart-rate",
                "identifier": [
                    {
                        "system": "https://opensource.samsung.com/projects/helifit/identifier",
                        "value": "fuisgjsdgcsdkugfsk-heart-rate"
                    }
                ],
                "status": "final",
                "code": {
                    "coding": [
                        {
                            "system": "http://local-system",
                            "code": "heart_rate",
                            "display": "Heart Rate"
                        }
                    ]
                },
                "subject": {
                    "reference": "https://opensource.samsung.com/projects/helifit/patient/user12@puglia.gatekeeper.com",
                    "display": "60b36ccc05f8c40fc9428105"
                },
                "effectivePeriod": {
                    "start": "2021-06-18T07:47:38+03:00",
                    "end": "2021-06-18T08:03:09+03:00"
                },
                "device": {
                    "identifier": {
                        "system": "https://opensource.samsung.com/projects/helifit/device",
                        "value": "XaIq54it7a"
                    }
                },
                "derivedFrom": [
                    {
                        "reference": "https://opensource.samsung.com/projects/helifit/observation/fuisgjsdgcsdkugfsk",
                        "display": "fuisgjsdgcsdkugfsk"
                    }
                ],
                "component": [
                    {
                        "code": {
                            "coding": [
                                {
                                    "system": "http://local-system",
                                    "code": "min_heart_rate",
                                    "display": "Heart Rate Min"
                                }
                            ]
                        },
                        "valueQuantity": {
                            "value": 4332,
                            "unit": "beats/min",
                            "system": "http://unitsofmeasure.org",
                            "code": "{Beats}/min"
                        }
                    },
                    {
                        "code": {
                            "coding": [
                                {
                                    "system": "http://local-system",
                                    "code": "mean_heart_rate",
                                    "display": "Heart Rate Mean"
                                }
                            ]
                        },
                        "valueQuantity": {
                            "value": 53432,
                            "unit": "beats/min",
                            "system": "http://unitsofmeasure.org",
                            "code": "{Beats}/min"
                        }
                    },
                    {
                        "code": {
                            "coding": [
                                {
                                    "system": "http://local-system",
                                    "code": "max_heart_rate",
                                    "display": "Heart Rate Max"
                                }
                            ]
                        },
                        "valueQuantity": {
                            "value": 544234,
                            "unit": "beats/min",
                            "system": "http://unitsofmeasure.org",
                            "code": "{Beats}/min"
                        }
                    }
                ]
            },
            "request": {
                "method": "POST",
                "url": "Observation"
            }
        },
        {
            "fullUrl": "https://opensource.samsung.com/projects/helifit/observation/fuisgjsdgcsdkugfsk-heart-rate-0",
            "resource": {
                "resourceType": "Observation",
                "id": "fuisgjsdgcsdkugfsk-heart-rate-0",
                "identifier": [
                    {
                        "system": "https://opensource.samsung.com/projects/helifit/identifier",
                        "value": "fuisgjsdgcsdkugfsk-heart-rate-0"
                    }
                ],
                "status": "final",
                "code": {
                    "coding": [
                        {
                            "system": "http://samsung/live-data",
                            "code": "live_data_heart_rate",
                            "display": "Live data heart rate"
                        }
                    ]
                },
                "subject": {
                    "reference": "https://opensource.samsung.com/projects/helifit/patient/user12@puglia.gatekeeper.com",
                    "display": "60b36ccc05f8c40fc9428105"
                },
                "effectivePeriod": {
                    "start": "2015-01-28T16:58:16+02:00",
                    "end": "2021-06-18T09:47:59+03:00"
                },
                "valueQuantity": {
                    "value": 147.48181,
                    "unit": "beats/min",
                    "system": "http://unitsofmeasure.org",
                    "code": "{Beats}/min"
                },
                "device": {
                    "identifier": {
                        "system": "https://opensource.samsung.com/projects/helifit/device",
                        "value": "XaIq54it7a"
                    }
                },
                "derivedFrom": [
                    {
                        "reference": "https://opensource.samsung.com/projects/helifit/observation/fuisgjsdgcsdkugfsk-heart-rate",
                        "display": "fuisgjsdgcsdkugfsk-heart-rate"
                    }
                ]
            },
            "request": {
                "method": "POST",
                "url": "Observation"
            }
        },
        {
            "fullUrl": "https://opensource.samsung.com/projects/helifit/observation/fuisgjsdgcsdkugfsk-heart-rate-1",
            "resource": {
                "resourceType": "Observation",
                "id": "fuisgjsdgcsdkugfsk-heart-rate-1",
                "identifier": [
                    {
                        "system": "https://opensource.samsung.com/projects/helifit/identifier",
                        "value": "fuisgjsdgcsdkugfsk-heart-rate-1"
                    }
                ],
                "status": "final",
                "code": {
                    "coding": [
                        {
                            "system": "http://samsung/live-data",
                            "code": "live_data_heart_rate",
                            "display": "Live data heart rate"
                        }
                    ]
                },
                "subject": {
                    "reference": "https://opensource.samsung.com/projects/helifit/patient/user12@puglia.gatekeeper.com",
                    "display": "60b36ccc05f8c40fc9428105"
                },
                "effectivePeriod": {
                    "start": "2021-06-18T10:03:00+03:00",
                    "end": "2021-06-18T10:03:59+03:00"
                },
                "valueQuantity": {
                    "value": 147.48181,
                    "unit": "beats/min",
                    "system": "http://unitsofmeasure.org",
                    "code": "{Beats}/min"
                },
                "device": {
                    "identifier": {
                        "system": "https://opensource.samsung.com/projects/helifit/device",
                        "value": "XaIq54it7a"
                    }
                },
                "derivedFrom": [
                    {
                        "reference": "https://opensource.samsung.com/projects/helifit/observation/fuisgjsdgcsdkugfsk-heart-rate",
                        "display": "fuisgjsdgcsdkugfsk-heart-rate"
                    }
                ]
            },
            "request": {
                "method": "POST",
                "url": "Observation"
            }
        },
        {
            "fullUrl": "https://opensource.samsung.com/projects/helifit/observation/fuisgjsdgcsdkugfsk-rpm",
            "resource": {
                "resourceType": "Observation",
                "id": "fuisgjsdgcsdkugfsk-rpm",
                "identifier": [
                    {
                        "system": "https://opensource.samsung.com/projects/helifit/identifier",
                        "value": "fuisgjsdgcsdkugfsk-rpm"
                    }
                ],
                "status": "final",
                "code": {
                    "coding": [
                        {
                            "system": "http://local-system",
                            "code": "rpm",
                            "display": "rpm"
                        }
                    ]
                },
                "subject": {
                    "reference": "https://opensource.samsung.com/projects/helifit/patient/user12@puglia.gatekeeper.com",
                    "display": "60b36ccc05f8c40fc9428105"
                },
                "effectivePeriod": {
                    "start": "2021-06-18T07:47:38+03:00",
                    "end": "2021-06-18T08:03:09+03:00"
                },
                "device": {
                    "identifier": {
                        "system": "https://opensource.samsung.com/projects/helifit/device",
                        "value": "XaIq54it7a"
                    }
                },
                "derivedFrom": [
                    {
                        "reference": "https://opensource.samsung.com/projects/helifit/observation/fuisgjsdgcsdkugfsk",
                        "display": "fuisgjsdgcsdkugfsk"
                    }
                ],
                "component": [
                    {
                        "code": {
                            "coding": [
                                {
                                    "system": "http://local-system",
                                    "code": "mean_rpm",
                                    "display": "Mean rpm"
                                }
                            ]
                        },
                        "valueQuantity": {
                            "value": 87654,
                            "unit": "Hz",
                            "system": "http://unitsofmeasure.org",
                            "code": "hZ"
                        }
                    },
                    {
                        "code": {
                            "coding": [
                                {
                                    "system": "http://local-system",
                                    "code": "max_rpm",
                                    "display": "Max rpm"
                                }
                            ]
                        },
                        "valueQuantity": {
                            "value": 98765,
                            "unit": "Hz",
                            "system": "http://unitsofmeasure.org",
                            "code": "hZ"
                        }
                    }
                ]
            },
            "request": {
                "method": "POST",
                "url": "Observation"
            }
        },
        {
            "fullUrl": "https://opensource.samsung.com/projects/helifit/observation/fuisgjsdgcsdkugfsk-vo2-max",
            "resource": {
                "resourceType": "Observation",
                "id": "fuisgjsdgcsdkugfsk-vo2-max",
                "identifier": [
                    {
                        "system": "https://opensource.samsung.com/projects/helifit/identifier",
                        "value": "fuisgjsdgcsdkugfsk-vo2-max"
                    }
                ],
                "status": "final",
                "code": {
                    "coding": [
                        {
                            "system": "http://local-system",
                            "code": "vo2_max",
                            "display": "Vo2_max"
                        }
                    ]
                },
                "subject": {
                    "reference": "https://opensource.samsung.com/projects/helifit/patient/user12@puglia.gatekeeper.com",
                    "display": "60b36ccc05f8c40fc9428105"
                },
                "effectivePeriod": {
                    "start": "2021-06-18T07:47:38+03:00",
                    "end": "2021-06-18T08:03:09+03:00"
                },
                "valueQuantity": {
                    "value": 654,
                    "unit": "mL/kg/min",
                    "system": "http://unitsofmeasure.org",
                    "code": "mL/kg/min"
                },
                "device": {
                    "identifier": {
                        "system": "https://opensource.samsung.com/projects/helifit/device",
                        "value": "XaIq54it7a"
                    }
                },
                "derivedFrom": [
                    {
                        "reference": "https://opensource.samsung.com/projects/helifit/observation/fuisgjsdgcsdkugfsk",
                        "display": "fuisgjsdgcsdkugfsk"
                    }
                ]
            },
            "request": {
                "method": "POST",
                "url": "Observation"
            }
        },
        {
            "fullUrl": "https://opensource.samsung.com/projects/helifit/observation/fuisgjsdgcsdkugfsk-location-0",
            "resource": {
                "resourceType": "Observation",
                "id": "fuisgjsdgcsdkugfsk-location-0",
                "identifier": [
                    {
                        "system": "https://opensource.samsung.com/projects/helifit/identifier",
                        "value": "fuisgjsdgcsdkugfsk-location-0"
                    }
                ],
                "status": "final",
                "code": {
                    "coding": [
                        {
                            "system": "http://local-system",
                            "code": "location",
                            "display": "Location"
                        }
                    ]
                },
                "subject": {
                    "reference": "https://opensource.samsung.com/projects/helifit/patient/user12@puglia.gatekeeper.com",
                    "display": "60b36ccc05f8c40fc9428105"
                },
                "effectivePeriod": {
                    "start": "2015-01-28T16:58:16+02:00",
                    "end": "2021-06-18T10:03:59+03:00"
                },
                "device": {
                    "identifier": {
                        "system": "https://opensource.samsung.com/projects/helifit/device",
                        "value": "XaIq54it7a"
                    }
                },
                "derivedFrom": [
                    {
                        "reference": "https://opensource.samsung.com/projects/helifit/observation/fuisgjsdgcsdkugfsk",
                        "display": "fuisgjsdgcsdkugfsk"
                    }
                ],
                "component": [
                    {
                        "code": {
                            "coding": [
                                {
                                    "system": "http://local-system",
                                    "code": "latitude",
                                    "display": "Latitude"
                                }
                            ]
                        },
                        "valueQuantity": {
                            "value": 2.7413864,
                            "unit": "...",
                            "system": "http://unitsofmeasure.org",
                            "code": "..."
                        }
                    },
                    {
                        "code": {
                            "coding": [
                                {
                                    "system": "http://local-system",
                                    "code": "longitude",
                                    "display": "Longitude"
                                }
                            ]
                        },
                        "valueQuantity": {
                            "value": 60.37224,
                            "unit": "...",
                            "system": "http://unitsofmeasure.org",
                            "code": "..."
                        }
                    },
                    {
                        "code": {
                            "coding": [
                                {
                                    "system": "http://local-system",
                                    "code": "altitude",
                                    "display": "Altitude"
                                }
                            ]
                        },
                        "valueQuantity": {
                            "value": 39.0,
                            "unit": "m",
                            "system": "http://unitsofmeasure.org",
                            "code": "..."
                        }
                    },
                    {
                        "code": {
                            "coding": [
                                {
                                    "system": "http://local-system",
                                    "code": "accuracy",
                                    "display": "Accuracy"
                                }
                            ]
                        },
                        "valueQuantity": {
                            "value": 0.0,
                            "unit": "...",
                            "system": "http://unitsofmeasure.org",
                            "code": "..."
                        }
                    }
                ]
            },
            "request": {
                "method": "POST",
                "url": "Observation"
            }
        },
        {
            "fullUrl": "https://opensource.samsung.com/projects/helifit/observation/fuisgjsdgcsdkugfsk-location-1",
            "resource": {
                "resourceType": "Observation",
                "id": "fuisgjsdgcsdkugfsk-location-1",
                "identifier": [
                    {
                        "system": "https://opensource.samsung.com/projects/helifit/identifier",
                        "value": "fuisgjsdgcsdkugfsk-location-1"
                    }
                ],
                "status": "final",
                "code": {
                    "coding": [
                        {
                            "system": "http://local-system",
                            "code": "location",
                            "display": "Location"
                        }
                    ]
                },
                "subject": {
                    "reference": "https://opensource.samsung.com/projects/helifit/patient/user12@puglia.gatekeeper.com",
                    "display": "60b36ccc05f8c40fc9428105"
                },
                "effectivePeriod": {
                    "start": "2015-01-28T16:58:16+02:00",
                    "end": "2484-08-16T01:41:45+03:00"
                },
                "device": {
                    "identifier": {
                        "system": "https://opensource.samsung.com/projects/helifit/device",
                        "value": "XaIq54it7a"
                    }
                },
                "derivedFrom": [
                    {
                        "reference": "https://opensource.samsung.com/projects/helifit/observation/fuisgjsdgcsdkugfsk",
                        "display": "fuisgjsdgcsdkugfsk"
                    }
                ],
                "component": [
                    {
                        "code": {
                            "coding": [
                                {
                                    "system": "http://local-system",
                                    "code": "latitude",
                                    "display": "Latitude"
                                }
                            ]
                        },
                        "valueQuantity": {
                            "value": 5.7413864,
                            "unit": "...",
                            "system": "http://unitsofmeasure.org",
                            "code": "..."
                        }
                    },
                    {
                        "code": {
                            "coding": [
                                {
                                    "system": "http://local-system",
                                    "code": "longitude",
                                    "display": "Longitude"
                                }
                            ]
                        },
                        "valueQuantity": {
                            "value": 50.37224,
                            "unit": "...",
                            "system": "http://unitsofmeasure.org",
                            "code": "..."
                        }
                    },
                    {
                        "code": {
                            "coding": [
                                {
                                    "system": "http://local-system",
                                    "code": "altitude",
                                    "display": "Altitude"
                                }
                            ]
                        },
                        "valueQuantity": {
                            "value": 49.0,
                            "unit": "m",
                            "system": "http://unitsofmeasure.org",
                            "code": "..."
                        }
                    },
                    {
                        "code": {
                            "coding": [
                                {
                                    "system": "http://local-system",
                                    "code": "accuracy",
                                    "display": "Accuracy"
                                }
                            ]
                        },
                        "valueQuantity": {
                            "value": 0.0,
                            "unit": "...",
                            "system": "http://unitsofmeasure.org",
                            "code": "..."
                        }
                    }
                ]
            },
            "request": {
                "method": "POST",
                "url": "Observation"
            }
        }
    ]
}