{"entry":[{"request":{"method":"POST","url":"Patient"},"resource":{"identifier":[{"system":"https://opensource.samsung.com/projects/helifit/identifier","systemDomainName":"opensource_samsung_com","value":"user12@puglia.gatekeeper.com"},{"system":"https://opensource.samsung.com/projects/helifit/identifier","systemDomainName":"opensource_samsung_com","value":"60b36ccc05f8c40fc9428105"}],"id":"60b36ccc05f8c40fc9428105","resourceType":"Patient"},"fullUrl":"https://opensource.samsung.com/projects/helifit/patient/user12@puglia.gatekeeper.com"},{"request":{"method":"POST","url":"Observation"},"resource":{"identifier":[{"system":"https://opensource.samsung.com/projects/helifit/identifier","value":"Observation/fuisgjsdgcsdkugfsk"}],"code":{"coding":[{"system":"http://loinc.org","code":"82948-1","systemDomainName":"loinc_org","display":"Walking"}]},"effectivePeriod":{"start":"2021-06-18T07:47:38+03:00","end":"2021-06-18T08:03:09+03:00"},"subject":{"reference":"https://opensource.samsung.com/projects/helifit/patient/user12@puglia.gatekeeper.com","display":"60b36ccc05f8c40fc9428105"},"id":"fuisgjsdgcsdkugfsk","device":{"identifier":{"system":"https://opensource.samsung.com/projects/helifit/device","value":"XaIq54it7a"}},"resourceType":"Observation","status":"final"},"fullUrl":"https://opensource.samsung.com/projects/helifit/observation/fuisgjsdgcsdkugfsk"},{"request":{"method":"POST","url":"Observation"},"resource":{"identifier":[{"system":"https://opensource.samsung.com/projects/helifit/identifier","value":"fuisgjsdgcsdkugfsk-calorie"}],"component":[{"resourceId":"fuisgjsdgcsdkugfsk-calorie","code":{"coding":[{"system":"http://local-system","code":"calorie","systemDomainName":"local-system","display":"Calorie"}]},"fullUrl":"urn:uuid:c8c10616-f302-496a-8bbf-2e4785c829e2","valueQuantity":{"unit":"kcal/s","system":"http://unitsofmeasure.org","code":"kcal/s","value":71}},{"resourceId":"fuisgjsdgcsdkugfsk-calorie","code":{"coding":[{"system":"http://local-system","code":"mean_caloricburn_rate","systemDomainName":"local-system","display":"Mean caloric burn rate"}]},"fullUrl":"urn:uuid:2d70c166-b379-4f50-97b8-5a85637a15c6","valueQuantity":{"unit":"kcal/s","system":"http://unitsofmeasure.org","code":"kcal/s","value":98234}},{"resourceId":"fuisgjsdgcsdkugfsk-calorie","code":{"coding":[{"system":"http://local-system","code":"max_caloricburn_rate","systemDomainName":"local-system","display":"Max caloric burn rate"}]},"fullUrl":"urn:uuid:2a1df70d-8296-4e6d-a4e6-b38d93ef56ab","valueQuantity":{"unit":"kcal/s","system":"http://unitsofmeasure.org","code":"kcal/s","value":98234}}],"code":{"coding":[{"system":"http://local-system","code":"calorie","systemDomainName":"local-system","display":"Calorie"}]},"effectivePeriod":{"start":"2021-06-18T07:47:38+03:00","end":"2021-06-18T08:03:09+03:00"},"subject":{"reference":"https://opensource.samsung.com/projects/helifit/patient/user12@puglia.gatekeeper.com","display":"60b36ccc05f8c40fc9428105"},"derivedFrom":[{"reference":"https://opensource.samsung.com/projects/helifit/observation/fuisgjsdgcsdkugfsk","display":"fuisgjsdgcsdkugfsk"}],"id":"fuisgjsdgcsdkugfsk-calorie","device":{"identifier":{"system":"https://opensource.samsung.com/projects/helifit/device","value":"XaIq54it7a"}},"resourceType":"Observation","status":"final"},"fullUrl":"https://opensource.samsung.com/projects/helifit/observation/fuisgjsdgcsdkugfsk-calorie"},{"request":{"method":"POST","url":"Observation"},"resource":{"identifier":[{"system":"https://opensource.samsung.com/projects/helifit/identifier","value":"fuisgjsdgcsdkugfsk-count"}],"component":[{"resourceId":"fuisgjsdgcsdkugfsk-count","code":{"coding":[{"system":"http://local-system","code":"count","systemDomainName":"local-system","display":"Count"}]},"fullUrl":"urn:uuid:0503ca78-b994-4072-a2cc-b025ec14c98e","valueQuantity":{"unit":"...","system":"http://unitsofmeasure.org","code":"...","value":985789}},{"resourceId":"fuisgjsdgcsdkugfsk-count","code":{"coding":[{"system":"http://local-system","code":"count_type","systemDomainName":"local-system","display":"Count type"}]},"fullUrl":"urn:uuid:591cd3f9-7331-4dd9-9c51-acb59a19fa3a","valueQuantity":{"value":30001}}],"code":{"coding":[{"system":"http://local-system","code":"count","systemDomainName":"local-system","display":"Count"}]},"effectivePeriod":{"start":"2021-06-18T07:47:38+03:00","end":"2021-06-18T08:03:09+03:00"},"subject":{"reference":"https://opensource.samsung.com/projects/helifit/patient/user12@puglia.gatekeeper.com","display":"60b36ccc05f8c40fc9428105"},"derivedFrom":[{"reference":"https://opensource.samsung.com/projects/helifit/observation/fuisgjsdgcsdkugfsk","display":"fuisgjsdgcsdkugfsk"}],"id":"fuisgjsdgcsdkugfsk-count","device":{"identifier":{"system":"https://opensource.samsung.com/projects/helifit/device","value":"XaIq54it7a"}},"resourceType":"Observation","status":"final"},"fullUrl":"https://opensource.samsung.com/projects/helifit/observation/fuisgjsdgcsdkugfsk-count"},{"request":{"method":"POST","url":"Observation"},"resource":{"identifier":[{"system":"https://opensource.samsung.com/projects/helifit/identifier","value":"fuisgjsdgcsdkugfsk-count-0"}],"code":{"coding":[{"system":"http://samsung/live-data","code":"live_data_count","systemDomainName":"samsung","display":"Live data count"}]},"effectivePeriod":{"start":"2015-01-28T16:58:16+02:00","end":"2021-06-18T09:47:59+03:00"},"subject":{"reference":"https://opensource.samsung.com/projects/helifit/patient/user12@puglia.gatekeeper.com","display":"60b36ccc05f8c40fc9428105"},"derivedFrom":[{"reference":"https://opensource.samsung.com/projects/helifit/observation/fuisgjsdgcsdkugfsk-count","display":"fuisgjsdgcsdkugfsk-count"}],"id":"fuisgjsdgcsdkugfsk-count-0","device":{"identifier":{"system":"https://opensource.samsung.com/projects/helifit/device","value":"XaIq54it7a"}},"resourceType":"Observation","status":"final","valueQuantity":{"unit":"...","system":"http://unitsofmeasure.org","code":"...","value":83}},"fullUrl":"https://opensource.samsung.com/projects/helifit/observation/fuisgjsdgcsdkugfsk-count-0"},{"request":{"method":"POST","url":"Observation"},"resource":{"identifier":[{"system":"https://opensource.samsung.com/projects/helifit/identifier","value":"fuisgjsdgcsdkugfsk-count-1"}],"code":{"coding":[{"system":"http://samsung/live-data","code":"live_data_count","systemDomainName":"samsung","display":"Live data count"}]},"effectivePeriod":{"start":"2021-06-18T10:03:00+03:00","end":"2021-06-18T10:03:59+03:00"},"subject":{"reference":"https://opensource.samsung.com/projects/helifit/patient/user12@puglia.gatekeeper.com","display":"60b36ccc05f8c40fc9428105"},"derivedFrom":[{"reference":"https://opensource.samsung.com/projects/helifit/observation/fuisgjsdgcsdkugfsk-count","display":"fuisgjsdgcsdkugfsk-count"}],"id":"fuisgjsdgcsdkugfsk-count-1","device":{"identifier":{"system":"https://opensource.samsung.com/projects/helifit/device","value":"XaIq54it7a"}},"resourceType":"Observation","status":"final","valueQuantity":{"unit":"...","system":"http://unitsofmeasure.org","code":"...","value":85}},"fullUrl":"https://opensource.samsung.com/projects/helifit/observation/fuisgjsdgcsdkugfsk-count-1"},{"request":{"method":"POST","url":"Observation"},"resource":{"identifier":[{"system":"https://opensource.samsung.com/projects/helifit/identifier","value":"fuisgjsdgcsdkugfsk-distance"}],"component":[{"resourceId":"fuisgjsdgcsdkugfsk-distance","code":{"coding":[{"system":"http://local-system","code":"distance","systemDomainName":"local-system","display":"Distance"}]},"fullUrl":"urn:uuid:64864965-5e8a-4efd-b945-fe6f6bfe876e","valueQuantity":{"unit":"m","system":"http://unitsofmeasure.org","code":"m","value":250}},{"resourceId":"fuisgjsdgcsdkugfsk-distance","code":{"coding":[{"system":"http://local-system","code":"incline_distance","systemDomainName":"local-system","display":"Incline distance"}]},"fullUrl":"urn:uuid:d66fa484-ab3d-4ac3-bd23-107de4ad3f8d","valueQuantity":{"unit":"m","system":"http://unitsofmeasure.org","code":"m","value":8924378}},{"resourceId":"fuisgjsdgcsdkugfsk-distance","code":{"coding":[{"system":"http://local-system","code":"decline_distance","systemDomainName":"local-system","display":"Decline distance"}]},"fullUrl":"urn:uuid:564ecf10-f41b-4802-ab74-0d906a8cf9c4","valueQuantity":{"unit":"m","system":"http://unitsofmeasure.org","code":"m","value":8936785}}],"code":{"coding":[{"system":"http://local-system","code":"distance","systemDomainName":"local-system","display":"Distance"}]},"effectivePeriod":{"start":"2021-06-18T07:47:38+03:00","end":"2021-06-18T08:03:09+03:00"},"subject":{"reference":"https://opensource.samsung.com/projects/helifit/patient/user12@puglia.gatekeeper.com","display":"60b36ccc05f8c40fc9428105"},"derivedFrom":[{"reference":"https://opensource.samsung.com/projects/helifit/observation/fuisgjsdgcsdkugfsk","display":"fuisgjsdgcsdkugfsk"}],"id":"fuisgjsdgcsdkugfsk-distance","device":{"identifier":{"system":"https://opensource.samsung.com/projects/helifit/device","value":"XaIq54it7a"}},"resourceType":"Observation","status":"final"},"fullUrl":"https://opensource.samsung.com/projects/helifit/observation/fuisgjsdgcsdkugfsk-distance"},{"request":{"method":"POST","url":"Observation"},"resource":{"identifier":[{"system":"https://opensource.samsung.com/projects/helifit/identifier","value":"fuisgjsdgcsdkugfsk-distance-0"}],"code":{"coding":[{"system":"http://samsung/live-data","code":"live_data_distance","systemDomainName":"samsung","display":"Live data distance"}]},"effectivePeriod":{"start":"2015-01-28T16:58:16+02:00","end":"2021-06-18T09:47:59+03:00"},"subject":{"reference":"https://opensource.samsung.com/projects/helifit/patient/user12@puglia.gatekeeper.com","display":"60b36ccc05f8c40fc9428105"},"derivedFrom":[{"reference":"https://opensource.samsung.com/projects/helifit/observation/fuisgjsdgcsdkugfsk-distance","display":"fuisgjsdgcsdkugfsk-distance"}],"id":"fuisgjsdgcsdkugfsk-distance-0","device":{"identifier":{"system":"https://opensource.samsung.com/projects/helifit/device","value":"XaIq54it7a"}},"resourceType":"Observation","status":"final","valueQuantity":{"unit":"m","system":"http://unitsofmeasure.org","code":"m","value":250}},"fullUrl":"https://opensource.samsung.com/projects/helifit/observation/fuisgjsdgcsdkugfsk-distance-0"},{"request":{"method":"POST","url":"Observation"},"resource":{"identifier":[{"system":"https://opensource.samsung.com/projects/helifit/identifier","value":"fuisgjsdgcsdkugfsk-distance-1"}],"code":{"coding":[{"system":"http://samsung/live-data","code":"live_data_distance","systemDomainName":"samsung","display":"Live data distance"}]},"effectivePeriod":{"start":"2021-06-18T10:03:00+03:00","end":"2021-06-18T10:03:59+03:00"},"subject":{"reference":"https://opensource.samsung.com/projects/helifit/patient/user12@puglia.gatekeeper.com","display":"60b36ccc05f8c40fc9428105"},"derivedFrom":[{"reference":"https://opensource.samsung.com/projects/helifit/observation/fuisgjsdgcsdkugfsk-distance","display":"fuisgjsdgcsdkugfsk-distance"}],"id":"fuisgjsdgcsdkugfsk-distance-1","device":{"identifier":{"system":"https://opensource.samsung.com/projects/helifit/device","value":"XaIq54it7a"}},"resourceType":"Observation","status":"final","valueQuantity":{"unit":"m","system":"http://unitsofmeasure.org","code":"m","value":250}},"fullUrl":"https://opensource.samsung.com/projects/helifit/observation/fuisgjsdgcsdkugfsk-distance-1"},{"request":{"method":"POST","url":"Observation"},"resource":{"identifier":[{"system":"https://opensource.samsung.com/projects/helifit/identifier","value":"fuisgjsdgcsdkugfsk-speed"}],"component":[{"resourceId":"fuisgjsdgcsdkugfsk-speed","code":{"coding":[{"system":"http://local-system","code":"mean_speed","systemDomainName":"local-system","display":"Mean speed"}]},"fullUrl":"urn:uuid:b3d6a39f-6510-40f0-a13d-0b1f8081a04b","valueQuantity":{"unit":"m/s","system":"http://unitsofmeasure.org","code":"m/s","value":76887}},{"resourceId":"fuisgjsdgcsdkugfsk-speed","code":{"coding":[{"system":"http://local-system","code":"max_speed","systemDomainName":"local-system","display":"Max speed"}]},"fullUrl":"urn:uuid:76696d51-1654-4f6f-94c9-059ab2b20374","valueQuantity":{"unit":"m/s","system":"http://unitsofmeasure.org","code":"m/s","value":983478}}],"code":{"coding":[{"system":"http://local-system","code":"speed","systemDomainName":"local-system","display":"Speed"}]},"effectivePeriod":{"start":"2021-06-18T07:47:38+03:00","end":"2021-06-18T08:03:09+03:00"},"subject":{"reference":"https://opensource.samsung.com/projects/helifit/patient/user12@puglia.gatekeeper.com","display":"60b36ccc05f8c40fc9428105"},"derivedFrom":[{"reference":"https://opensource.samsung.com/projects/helifit/observation/fuisgjsdgcsdkugfsk","display":"fuisgjsdgcsdkugfsk"}],"id":"fuisgjsdgcsdkugfsk-speed","device":{"identifier":{"system":"https://opensource.samsung.com/projects/helifit/device","value":"XaIq54it7a"}},"resourceType":"Observation","status":"final"},"fullUrl":"https://opensource.samsung.com/projects/helifit/observation/fuisgjsdgcsdkugfsk-speed"},{"request":{"method":"POST","url":"Observation"},"resource":{"identifier":[{"system":"https://opensource.samsung.com/projects/helifit/identifier","value":"fuisgjsdgcsdkugfsk-speed-0"}],"code":{"coding":[{"system":"http://samsung/live-data","code":"live_data_speed","systemDomainName":"samsung","display":"Live data speed"}]},"effectivePeriod":{"start":"2015-01-28T16:58:16+02:00","end":"2021-06-18T09:47:59+03:00"},"subject":{"reference":"https://opensource.samsung.com/projects/helifit/patient/user12@puglia.gatekeeper.com","display":"60b36ccc05f8c40fc9428105"},"derivedFrom":[{"reference":"https://opensource.samsung.com/projects/helifit/observation/fuisgjsdgcsdkugfsk-speed","display":"fuisgjsdgcsdkugfsk-speed"}],"id":"fuisgjsdgcsdkugfsk-speed-0","device":{"identifier":{"system":"https://opensource.samsung.com/projects/helifit/device","value":"XaIq54it7a"}},"resourceType":"Observation","status":"final","valueQuantity":{"unit":"m/s","system":"http://unitsofmeasure.org","code":"m/s","value":11.061617}},"fullUrl":"https://opensource.samsung.com/projects/helifit/observation/fuisgjsdgcsdkugfsk-speed-0"},{"request":{"method":"POST","url":"Observation"},"resource":{"identifier":[{"system":"https://opensource.samsung.com/projects/helifit/identifier","value":"fuisgjsdgcsdkugfsk-speed-1"}],"code":{"coding":[{"system":"http://samsung/live-data","code":"live_data_speed","systemDomainName":"samsung","display":"Live data speed"}]},"effectivePeriod":{"start":"2021-06-18T10:03:00+03:00","end":"2021-06-18T10:03:59+03:00"},"subject":{"reference":"https://opensource.samsung.com/projects/helifit/patient/user12@puglia.gatekeeper.com","display":"60b36ccc05f8c40fc9428105"},"derivedFrom":[{"reference":"https://opensource.samsung.com/projects/helifit/observation/fuisgjsdgcsdkugfsk-speed","display":"fuisgjsdgcsdkugfsk-speed"}],"id":"fuisgjsdgcsdkugfsk-speed-1","device":{"identifier":{"system":"https://opensource.samsung.com/projects/helifit/device","value":"XaIq54it7a"}},"resourceType":"Observation","status":"final","valueQuantity":{"unit":"m/s","system":"http://unitsofmeasure.org","code":"m/s","value":11.061617}},"fullUrl":"https://opensource.samsung.com/projects/helifit/observation/fuisgjsdgcsdkugfsk-speed-1"},{"request":{"method":"POST","url":"Observation"},"resource":{"identifier":[{"system":"https://opensource.samsung.com/projects/helifit/identifier","value":"fuisgjsdgcsdkugfsk-cadence"}],"component":[{"resourceId":"fuisgjsdgcsdkugfsk-cadence","code":{"coding":[{"system":"http://local-system","code":"mean_cadence","systemDomainName":"local-system","display":"Mean Cadence"}]},"fullUrl":"urn:uuid:2f3924b7-456d-415f-ae4f-c80979f12813","valueQuantity":{"unit":"m/s","system":"http://unitsofmeasure.org","code":"m/s","value":65432}},{"resourceId":"fuisgjsdgcsdkugfsk-cadence","code":{"coding":[{"system":"http://local-system","code":"max_cadence","systemDomainName":"local-system","display":"Max Cadence"}]},"fullUrl":"urn:uuid:6c300ec3-b900-4cd7-962f-2e67e4e60d16","valueQuantity":{"unit":"m/s","system":"http://unitsofmeasure.org","code":"m/s","value":89723}}],"code":{"coding":[{"system":"http://local-system","code":"cadence","systemDomainName":"local-system","display":"Cadence"}]},"effectivePeriod":{"start":"2021-06-18T07:47:38+03:00","end":"2021-06-18T08:03:09+03:00"},"subject":{"reference":"https://opensource.samsung.com/projects/helifit/patient/user12@puglia.gatekeeper.com","display":"60b36ccc05f8c40fc9428105"},"derivedFrom":[{"reference":"https://opensource.samsung.com/projects/helifit/observation/fuisgjsdgcsdkugfsk","display":"fuisgjsdgcsdkugfsk"}],"id":"fuisgjsdgcsdkugfsk-cadence","device":{"identifier":{"system":"https://opensource.samsung.com/projects/helifit/device","value":"XaIq54it7a"}},"resourceType":"Observation","status":"final"},"fullUrl":"https://opensource.samsung.com/projects/helifit/observation/fuisgjsdgcsdkugfsk-cadence"},{"request":{"method":"POST","url":"Observation"},"resource":{"identifier":[{"system":"https://opensource.samsung.com/projects/helifit/identifier","value":"fuisgjsdgcsdkugfsk-cadence-0"}],"code":{"coding":[{"system":"http://samsung/live-data","code":"live_data_cadence","systemDomainName":"samsung","display":"Live data cadence"}]},"effectivePeriod":{"start":"2015-01-28T16:58:16+02:00","end":"2021-06-18T09:47:59+03:00"},"subject":{"reference":"https://opensource.samsung.com/projects/helifit/patient/user12@puglia.gatekeeper.com","display":"60b36ccc05f8c40fc9428105"},"derivedFrom":[{"reference":"https://opensource.samsung.com/projects/helifit/observation/fuisgjsdgcsdkugfsk-cadence","display":"fuisgjsdgcsdkugfsk-cadence"}],"id":"fuisgjsdgcsdkugfsk-cadence-0","device":{"identifier":{"system":"https://opensource.samsung.com/projects/helifit/device","value":"XaIq54it7a"}},"resourceType":"Observation","status":"final","valueQuantity":{"unit":"m/s","system":"http://unitsofmeasure.org","code":"m/s","value":94}},"fullUrl":"https://opensource.samsung.com/projects/helifit/observation/fuisgjsdgcsdkugfsk-cadence-0"},{"request":{"method":"POST","url":"Observation"},"resource":{"identifier":[{"system":"https://opensource.samsung.com/projects/helifit/identifier","value":"fuisgjsdgcsdkugfsk-cadence-1"}],"code":{"coding":[{"system":"http://samsung/live-data","code":"live_data_cadence","systemDomainName":"samsung","display":"Live data cadence"}]},"effectivePeriod":{"start":"2021-06-18T10:03:00+03:00","end":"2021-06-18T10:03:59+03:00"},"subject":{"reference":"https://opensource.samsung.com/projects/helifit/patient/user12@puglia.gatekeeper.com","display":"60b36ccc05f8c40fc9428105"},"derivedFrom":[{"reference":"https://opensource.samsung.com/projects/helifit/observation/fuisgjsdgcsdkugfsk-cadence","display":"fuisgjsdgcsdkugfsk-cadence"}],"id":"fuisgjsdgcsdkugfsk-cadence-1","device":{"identifier":{"system":"https://opensource.samsung.com/projects/helifit/device","value":"XaIq54it7a"}},"resourceType":"Observation","status":"final","valueQuantity":{"unit":"m/s","system":"http://unitsofmeasure.org","code":"m/s","value":95.00001}},"fullUrl":"https://opensource.samsung.com/projects/helifit/observation/fuisgjsdgcsdkugfsk-cadence-1"},{"request":{"method":"POST","url":"Observation"},"resource":{"identifier":[{"system":"https://opensource.samsung.com/projects/helifit/identifier","value":"fuisgjsdgcsdkugfsk-power"}],"component":[{"resourceId":"fuisgjsdgcsdkugfsk-power","code":{"coding":[{"system":"http://local-system","code":"mean_power","systemDomainName":"local-system","display":"Mean Power"}]},"fullUrl":"urn:uuid:e7a00612-8e8c-4e55-8423-185f84a64ebf","valueQuantity":{"unit":"watt","system":"http://unitsofmeasure.org","code":"W","value":7654}},{"resourceId":"fuisgjsdgcsdkugfsk-power","code":{"coding":[{"system":"http://local-system","code":"max_power","systemDomainName":"local-system","display":"Max Power"}]},"fullUrl":"urn:uuid:47013397-caa5-4413-ba4d-b398585313f4","valueQuantity":{"unit":"watt","system":"http://unitsofmeasure.org","code":"W","value":87654}}],"code":{"coding":[{"system":"http://local-system","code":"power","systemDomainName":"local-system","display":"Power"}]},"effectivePeriod":{"start":"2021-06-18T07:47:38+03:00","end":"2021-06-18T08:03:09+03:00"},"subject":{"reference":"https://opensource.samsung.com/projects/helifit/patient/user12@puglia.gatekeeper.com","display":"60b36ccc05f8c40fc9428105"},"derivedFrom":[{"reference":"https://opensource.samsung.com/projects/helifit/observation/fuisgjsdgcsdkugfsk","display":"fuisgjsdgcsdkugfsk"}],"id":"fuisgjsdgcsdkugfsk-power","device":{"identifier":{"system":"https://opensource.samsung.com/projects/helifit/device","value":"XaIq54it7a"}},"resourceType":"Observation","status":"final"},"fullUrl":"https://opensource.samsung.com/projects/helifit/observation/fuisgjsdgcsdkugfsk-power"},{"request":{"method":"POST","url":"Observation"},"resource":{"identifier":[{"system":"https://opensource.samsung.com/projects/helifit/identifier","value":"fuisgjsdgcsdkugfsk-power-0"}],"code":{"coding":[{"system":"http://samsung/live-data","code":"live_data_power","systemDomainName":"samsung","display":"Live data power"}]},"effectivePeriod":{"start":"2015-01-28T16:58:16+02:00","end":"2021-06-18T09:47:59+03:00"},"subject":{"reference":"https://opensource.samsung.com/projects/helifit/patient/user12@puglia.gatekeeper.com","display":"60b36ccc05f8c40fc9428105"},"derivedFrom":[{"reference":"https://opensource.samsung.com/projects/helifit/observation/fuisgjsdgcsdkugfsk-power","display":"fuisgjsdgcsdkugfsk-power"}],"id":"fuisgjsdgcsdkugfsk-power-0","device":{"identifier":{"system":"https://opensource.samsung.com/projects/helifit/device","value":"XaIq54it7a"}},"resourceType":"Observation","status":"final","valueQuantity":{"unit":"watt","system":"http://unitsofmeasure.org","code":"W","value":99.50436}},"fullUrl":"https://opensource.samsung.com/projects/helifit/observation/fuisgjsdgcsdkugfsk-power-0"},{"request":{"method":"POST","url":"Observation"},"resource":{"identifier":[{"system":"https://opensource.samsung.com/projects/helifit/identifier","value":"fuisgjsdgcsdkugfsk-power-1"}],"code":{"coding":[{"system":"http://samsung/live-data","code":"live_data_power","systemDomainName":"samsung","display":"Live data power"}]},"effectivePeriod":{"start":"2021-06-18T10:03:00+03:00","end":"2021-06-18T10:03:59+03:00"},"subject":{"reference":"https://opensource.samsung.com/projects/helifit/patient/user12@puglia.gatekeeper.com","display":"60b36ccc05f8c40fc9428105"},"derivedFrom":[{"reference":"https://opensource.samsung.com/projects/helifit/observation/fuisgjsdgcsdkugfsk-power","display":"fuisgjsdgcsdkugfsk-power"}],"id":"fuisgjsdgcsdkugfsk-power-1","device":{"identifier":{"system":"https://opensource.samsung.com/projects/helifit/device","value":"XaIq54it7a"}},"resourceType":"Observation","status":"final","valueQuantity":{"unit":"watt","system":"http://unitsofmeasure.org","code":"W","value":99.50436}},"fullUrl":"https://opensource.samsung.com/projects/helifit/observation/fuisgjsdgcsdkugfsk-power-1"},{"request":{"method":"POST","url":"Observation"},"resource":{"identifier":[{"system":"https://opensource.samsung.com/projects/helifit/identifier","value":"fuisgjsdgcsdkugfsk-altitude"}],"component":[{"resourceId":"fuisgjsdgcsdkugfsk-altitude","code":{"coding":[{"system":"http://local-system","code":"altitude_gain","systemDomainName":"local-system","display":"Altitude gain"}]},"fullUrl":"urn:uuid:8d36edd2-3c31-488c-9058-8c089382e07d","valueQuantity":{"unit":"m","system":"http://unitsofmeasure.org","code":"m","value":1234}},{"resourceId":"fuisgjsdgcsdkugfsk-altitude","code":{"coding":[{"system":"http://local-system","code":"altitude_loss","systemDomainName":"local-system","display":"Altitude loss"}]},"fullUrl":"urn:uuid:38319077-0a94-498f-a6e3-9e421a9a1015","valueQuantity":{"unit":"m","system":"http://unitsofmeasure.org","code":"m","value":7345}},{"resourceId":"fuisgjsdgcsdkugfsk-altitude","code":{"coding":[{"system":"http://local-system","code":"min_altitude","systemDomainName":"local-system","display":"Min altitude"}]},"fullUrl":"urn:uuid:66191796-1730-4342-a165-6c9608551b1f","valueQuantity":{"unit":"m","system":"http://unitsofmeasure.org","code":"m","value":6432}},{"resourceId":"fuisgjsdgcsdkugfsk-altitude","code":{"coding":[{"system":"http://local-system","code":"max_altitude","systemDomainName":"local-system","display":"Max Altitude"}]},"fullUrl":"urn:uuid:7efd72ab-a5cd-43ce-a890-cc66ea3ce697","valueQuantity":{"unit":"m","system":"http://unitsofmeasure.org","code":"m","value":6543}}],"code":{"coding":[{"system":"http://local-system","code":"altitude","systemDomainName":"local-system","display":"Altitude"}]},"effectivePeriod":{"start":"2021-06-18T07:47:38+03:00","end":"2021-06-18T08:03:09+03:00"},"subject":{"reference":"https://opensource.samsung.com/projects/helifit/patient/user12@puglia.gatekeeper.com","display":"60b36ccc05f8c40fc9428105"},"derivedFrom":[{"reference":"https://opensource.samsung.com/projects/helifit/observation/fuisgjsdgcsdkugfsk","display":"fuisgjsdgcsdkugfsk"}],"id":"fuisgjsdgcsdkugfsk-altitude","device":{"identifier":{"system":"https://opensource.samsung.com/projects/helifit/device","value":"XaIq54it7a"}},"resourceType":"Observation","status":"final"},"fullUrl":"https://opensource.samsung.com/projects/helifit/observation/fuisgjsdgcsdkugfsk-altitude"},{"request":{"method":"POST","url":"Observation"},"resource":{"identifier":[{"system":"https://opensource.samsung.com/projects/helifit/identifier","value":"fuisgjsdgcsdkugfsk-duration"}],"code":{"coding":[{"system":"http://local-system","code":"duration","systemDomainName":"local-system","display":"Duration"}]},"effectivePeriod":{"start":"2021-06-18T07:47:38+03:00","end":"2021-06-18T08:03:09+03:00"},"subject":{"reference":"https://opensource.samsung.com/projects/helifit/patient/user12@puglia.gatekeeper.com","display":"60b36ccc05f8c40fc9428105"},"derivedFrom":[{"reference":"https://opensource.samsung.com/projects/helifit/observation/fuisgjsdgcsdkugfsk","display":"fuisgjsdgcsdkugfsk"}],"id":"fuisgjsdgcsdkugfsk-duration","device":{"identifier":{"system":"https://opensource.samsung.com/projects/helifit/device","value":"XaIq54it7a"}},"resourceType":"Observation","status":"final","valueQuantity":{"unit":"s","system":"http://unitsofmeasure.org","code":"s","value":930720}},"fullUrl":"https://opensource.samsung.com/projects/helifit/observation/fuisgjsdgcsdkugfsk-duration"},{"request":{"method":"POST","url":"Observation"},"resource":{"identifier":[{"system":"https://opensource.samsung.com/projects/helifit/identifier","value":"fuisgjsdgcsdkugfsk-heart-rate"}],"component":[{"resourceId":"fuisgjsdgcsdkugfsk-heart-rate","code":{"coding":[{"system":"http://local-system","code":"min_heart_rate","systemDomainName":"local-system","display":"Heart Rate Min"}]},"fullUrl":"urn:uuid:4d8bb6e1-7755-4b48-ae99-08e8089a5eae","valueQuantity":{"unit":"beats/min","system":"http://unitsofmeasure.org","code":"{Beats}/min","value":4332}},{"resourceId":"fuisgjsdgcsdkugfsk-heart-rate","code":{"coding":[{"system":"http://local-system","code":"mean_heart_rate","systemDomainName":"local-system","display":"Heart Rate Mean"}]},"fullUrl":"urn:uuid:7789a0be-88a0-499e-92c1-a35fd5d63625","valueQuantity":{"unit":"beats/min","system":"http://unitsofmeasure.org","code":"{Beats}/min","value":53432}},{"resourceId":"fuisgjsdgcsdkugfsk-heart-rate","code":{"coding":[{"system":"http://local-system","code":"max_heart_rate","systemDomainName":"local-system","display":"Heart Rate Max"}]},"fullUrl":"urn:uuid:8674055d-a878-4122-9793-83da520e154d","valueQuantity":{"unit":"beats/min","system":"http://unitsofmeasure.org","code":"{Beats}/min","value":544234}}],"code":{"coding":[{"system":"http://local-system","code":"heart_rate","systemDomainName":"local-system","display":"Heart Rate"}]},"effectivePeriod":{"start":"2021-06-18T07:47:38+03:00","end":"2021-06-18T08:03:09+03:00"},"subject":{"reference":"https://opensource.samsung.com/projects/helifit/patient/user12@puglia.gatekeeper.com","display":"60b36ccc05f8c40fc9428105"},"derivedFrom":[{"reference":"https://opensource.samsung.com/projects/helifit/observation/fuisgjsdgcsdkugfsk","display":"fuisgjsdgcsdkugfsk"}],"id":"fuisgjsdgcsdkugfsk-heart-rate","device":{"identifier":{"system":"https://opensource.samsung.com/projects/helifit/device","value":"XaIq54it7a"}},"resourceType":"Observation","status":"final"},"fullUrl":"https://opensource.samsung.com/projects/helifit/observation/fuisgjsdgcsdkugfsk-heart-rate"},{"request":{"method":"POST","url":"Observation"},"resource":{"identifier":[{"system":"https://opensource.samsung.com/projects/helifit/identifier","value":"fuisgjsdgcsdkugfsk-heart-rate-0"}],"code":{"coding":[{"system":"http://samsung/live-data","code":"live_data_heart_rate","systemDomainName":"samsung","display":"Live data heart rate"}]},"effectivePeriod":{"start":"2015-01-28T16:58:16+02:00","end":"2021-06-18T09:47:59+03:00"},"subject":{"reference":"https://opensource.samsung.com/projects/helifit/patient/user12@puglia.gatekeeper.com","display":"60b36ccc05f8c40fc9428105"},"derivedFrom":[{"reference":"https://opensource.samsung.com/projects/helifit/observation/fuisgjsdgcsdkugfsk-heart-rate","display":"fuisgjsdgcsdkugfsk-heart-rate"}],"id":"fuisgjsdgcsdkugfsk-heart-rate-0","device":{"identifier":{"system":"https://opensource.samsung.com/projects/helifit/device","value":"XaIq54it7a"}},"resourceType":"Observation","status":"final","valueQuantity":{"unit":"beats/min","system":"http://unitsofmeasure.org","code":"{Beats}/min","value":147.48181}},"fullUrl":"https://opensource.samsung.com/projects/helifit/observation/fuisgjsdgcsdkugfsk-heart-rate-0"},{"request":{"method":"POST","url":"Observation"},"resource":{"identifier":[{"system":"https://opensource.samsung.com/projects/helifit/identifier","value":"fuisgjsdgcsdkugfsk-heart-rate-1"}],"code":{"coding":[{"system":"http://samsung/live-data","code":"live_data_heart_rate","systemDomainName":"samsung","display":"Live data heart rate"}]},"effectivePeriod":{"start":"2021-06-18T10:03:00+03:00","end":"2021-06-18T10:03:59+03:00"},"subject":{"reference":"https://opensource.samsung.com/projects/helifit/patient/user12@puglia.gatekeeper.com","display":"60b36ccc05f8c40fc9428105"},"derivedFrom":[{"reference":"https://opensource.samsung.com/projects/helifit/observation/fuisgjsdgcsdkugfsk-heart-rate","display":"fuisgjsdgcsdkugfsk-heart-rate"}],"id":"fuisgjsdgcsdkugfsk-heart-rate-1","device":{"identifier":{"system":"https://opensource.samsung.com/projects/helifit/device","value":"XaIq54it7a"}},"resourceType":"Observation","status":"final","valueQuantity":{"unit":"beats/min","system":"http://unitsofmeasure.org","code":"{Beats}/min","value":147.48181}},"fullUrl":"https://opensource.samsung.com/projects/helifit/observation/fuisgjsdgcsdkugfsk-heart-rate-1"},{"request":{"method":"POST","url":"Observation"},"resource":{"identifier":[{"system":"https://opensource.samsung.com/projects/helifit/identifier","value":"fuisgjsdgcsdkugfsk-rpm"}],"component":[{"resourceId":"fuisgjsdgcsdkugfsk-rpm","code":{"coding":[{"system":"http://local-system","code":"mean_rpm","systemDomainName":"local-system","display":"Mean rpm"}]},"fullUrl":"urn:uuid:0790284c-5e80-41d4-abbd-a20b669722f7","valueQuantity":{"unit":"Hz","system":"http://unitsofmeasure.org","code":"hZ","value":87654}},{"resourceId":"fuisgjsdgcsdkugfsk-rpm","code":{"coding":[{"system":"http://local-system","code":"max_rpm","systemDomainName":"local-system","display":"Max rpm"}]},"fullUrl":"urn:uuid:cdd511c5-d7f3-4281-9b4c-acd33d4ef3ba","valueQuantity":{"unit":"Hz","system":"http://unitsofmeasure.org","code":"hZ","value":98765}}],"code":{"coding":[{"system":"http://local-system","code":"rpm","systemDomainName":"local-system","display":"rpm"}]},"effectivePeriod":{"start":"2021-06-18T07:47:38+03:00","end":"2021-06-18T08:03:09+03:00"},"subject":{"reference":"https://opensource.samsung.com/projects/helifit/patient/user12@puglia.gatekeeper.com","display":"60b36ccc05f8c40fc9428105"},"derivedFrom":[{"reference":"https://opensource.samsung.com/projects/helifit/observation/fuisgjsdgcsdkugfsk","display":"fuisgjsdgcsdkugfsk"}],"id":"fuisgjsdgcsdkugfsk-rpm","device":{"identifier":{"system":"https://opensource.samsung.com/projects/helifit/device","value":"XaIq54it7a"}},"resourceType":"Observation","status":"final"},"fullUrl":"https://opensource.samsung.com/projects/helifit/observation/fuisgjsdgcsdkugfsk-rpm"},{"request":{"method":"POST","url":"Observation"},"resource":{"identifier":[{"system":"https://opensource.samsung.com/projects/helifit/identifier","value":"fuisgjsdgcsdkugfsk-vo2-max"}],"code":{"coding":[{"system":"http://local-system","code":"vo2_max","systemDomainName":"local-system","display":"Vo2_max"}]},"effectivePeriod":{"start":"2021-06-18T07:47:38+03:00","end":"2021-06-18T08:03:09+03:00"},"subject":{"reference":"https://opensource.samsung.com/projects/helifit/patient/user12@puglia.gatekeeper.com","display":"60b36ccc05f8c40fc9428105"},"derivedFrom":[{"reference":"https://opensource.samsung.com/projects/helifit/observation/fuisgjsdgcsdkugfsk","display":"fuisgjsdgcsdkugfsk"}],"id":"fuisgjsdgcsdkugfsk-vo2-max","device":{"identifier":{"system":"https://opensource.samsung.com/projects/helifit/device","value":"XaIq54it7a"}},"resourceType":"Observation","status":"final","valueQuantity":{"unit":"mL/kg/min","system":"http://unitsofmeasure.org","code":"mL/kg/min","value":654}},"fullUrl":"https://opensource.samsung.com/projects/helifit/observation/fuisgjsdgcsdkugfsk-vo2-max"},{"request":{"method":"POST","url":"Observation"},"resource":{"identifier":[{"system":"https://opensource.samsung.com/projects/helifit/identifier","value":"fuisgjsdgcsdkugfsk-location-0"}],"component":[{"resourceId":"fuisgjsdgcsdkugfsk-location-0","code":{"coding":[{"system":"http://local-system","code":"latitude","systemDomainName":"local-system","display":"Latitude"}]},"fullUrl":"urn:uuid:7db52325-4d6c-43ba-9596-c02e8359b470","valueQuantity":{"unit":"...","system":"http://unitsofmeasure.org","code":"...","value":2.7413864}},{"resourceId":"fuisgjsdgcsdkugfsk-location-0","code":{"coding":[{"system":"http://local-system","code":"longitude","systemDomainName":"local-system","display":"Longitude"}]},"fullUrl":"urn:uuid:ce26972b-4314-40c2-ab49-545c09331241","valueQuantity":{"unit":"...","system":"http://unitsofmeasure.org","code":"...","value":60.37224}},{"resourceId":"fuisgjsdgcsdkugfsk-location-0","code":{"coding":[{"system":"http://local-system","code":"altitude","systemDomainName":"local-system","display":"Altitude"}]},"fullUrl":"urn:uuid:e62287ee-6222-4899-a970-53af05f749d5","valueQuantity":{"unit":"m","system":"http://unitsofmeasure.org","code":"...","value":39}},{"resourceId":"fuisgjsdgcsdkugfsk-location-0","code":{"coding":[{"system":"http://local-system","code":"accuracy","systemDomainName":"local-system","display":"Accuracy"}]},"fullUrl":"urn:uuid:760e6b2a-6b55-4e48-907a-58949fada73d","valueQuantity":{"unit":"...","system":"http://unitsofmeasure.org","code":"...","value":0}}],"code":{"coding":[{"system":"http://local-system","code":"location","systemDomainName":"local-system","display":"Location"}]},"effectivePeriod":{"start":"2015-01-28T16:58:16+02:00","end":"2021-06-18T10:03:59+03:00"},"subject":{"reference":"https://opensource.samsung.com/projects/helifit/patient/user12@puglia.gatekeeper.com","display":"60b36ccc05f8c40fc9428105"},"derivedFrom":[{"reference":"https://opensource.samsung.com/projects/helifit/observation/fuisgjsdgcsdkugfsk","display":"fuisgjsdgcsdkugfsk"}],"id":"fuisgjsdgcsdkugfsk-location-0","device":{"identifier":{"system":"https://opensource.samsung.com/projects/helifit/device","value":"XaIq54it7a"}},"resourceType":"Observation","status":"final"},"fullUrl":"https://opensource.samsung.com/projects/helifit/observation/fuisgjsdgcsdkugfsk-location-0"},{"request":{"method":"POST","url":"Observation"},"resource":{"identifier":[{"system":"https://opensource.samsung.com/projects/helifit/identifier","value":"fuisgjsdgcsdkugfsk-location-1"}],"component":[{"resourceId":"fuisgjsdgcsdkugfsk-location-1","code":{"coding":[{"system":"http://local-system","code":"latitude","systemDomainName":"local-system","display":"Latitude"}]},"fullUrl":"urn:uuid:04d15991-8420-4fbd-b8f6-b305a16d9f4f","valueQuantity":{"unit":"...","system":"http://unitsofmeasure.org","code":"...","value":5.7413864}},{"resourceId":"fuisgjsdgcsdkugfsk-location-1","code":{"coding":[{"system":"http://local-system","code":"longitude","systemDomainName":"local-system","display":"Longitude"}]},"fullUrl":"urn:uuid:ecf1d2f1-d76b-4039-88ea-53f62c57afba","valueQuantity":{"unit":"...","system":"http://unitsofmeasure.org","code":"...","value":50.37224}},{"resourceId":"fuisgjsdgcsdkugfsk-location-1","code":{"coding":[{"system":"http://local-system","code":"altitude","systemDomainName":"local-system","display":"Altitude"}]},"fullUrl":"urn:uuid:c760eab0-fcbe-4f9a-a447-eea7783ad83f","valueQuantity":{"unit":"m","system":"http://unitsofmeasure.org","code":"...","value":49}},{"resourceId":"fuisgjsdgcsdkugfsk-location-1","code":{"coding":[{"system":"http://local-system","code":"accuracy","systemDomainName":"local-system","display":"Accuracy"}]},"fullUrl":"urn:uuid:fecfab30-2ecf-413d-9d62-4d9544123745","valueQuantity":{"unit":"...","system":"http://unitsofmeasure.org","code":"...","value":0}}],"code":{"coding":[{"system":"http://local-system","code":"location","systemDomainName":"local-system","display":"Location"}]},"effectivePeriod":{"start":"2015-01-28T16:58:16+02:00","end":"2484-08-16T01:41:45+03:00"},"subject":{"reference":"https://opensource.samsung.com/projects/helifit/patient/user12@puglia.gatekeeper.com","display":"60b36ccc05f8c40fc9428105"},"derivedFrom":[{"reference":"https://opensource.samsung.com/projects/helifit/observation/fuisgjsdgcsdkugfsk","display":"fuisgjsdgcsdkugfsk"}],"id":"fuisgjsdgcsdkugfsk-location-1","device":{"identifier":{"system":"https://opensource.samsung.com/projects/helifit/device","value":"XaIq54it7a"}},"resourceType":"Observation","status":"final"},"fullUrl":"https://opensource.samsung.com/projects/helifit/observation/fuisgjsdgcsdkugfsk-location-1"}],"type":"transaction","resourceType":"Bundle"}