{"entry":[{"request":{"method":"POST","url":"Patient"},"resource":{"identifier":[{"system":"https://opensource.samsung.com/projects/helifit/identifier","systemDomainName":"opensource_samsung_com","value":"user12@puglia.gatekeeper.com"},{"system":"https://opensource.samsung.com/projects/helifit/identifier","systemDomainName":"opensource_samsung_com","value":"60b36ccc05f8c40fc9428105"}],"id":"60b36ccc05f8c40fc9428105","resourceType":"Patient"},"fullUrl":"https://opensource.samsung.com/projects/helifit/patient/user12@puglia.gatekeeper.com"},{"request":{"method":"POST","url":"Observation"},"resource":{"identifier":[{"system":"https://opensource.samsung.com/projects/helifit/identifier","value":"Observation/rygfldshgflasdgfadljfgaljfgaljg"}],"code":{"coding":[{"system":"http://local-system","code":"stepdailytrend","systemDomainName":"local-system","display":"Stepdailytrend"}]},"effectivePeriod":{"start":"2021-06-17T03:00:00+03:00","end":"2021-06-18T02:59:59+03:00"},"subject":{"reference":"https://opensource.samsung.com/projects/helifit/patient/user12@puglia.gatekeeper.com","display":"60b36ccc05f8c40fc9428105"},"id":"rygfldshgflasdgfadljfgaljfgaljg","device":{"identifier":{"system":"https://opensource.samsung.com/projects/helifit/device","value":"VfS0qUERdZ"}},"resourceType":"Observation","status":"final"},"fullUrl":"https://opensource.samsung.com/projects/helifit/observation/rygfldshgflasdgfadljfgaljfgaljg"},{"request":{"method":"POST","url":"Observation"},"resource":{"identifier":[{"system":"https://opensource.samsung.com/projects/helifit/identifier","value":"rygfldshgflasdgfadljfgaljfgaljg-calorie"}],"component":[{"resourceId":"rygfldshgflasdgfadljfgaljfgaljg-calorie","code":{"coding":[{"system":"http://local-system","code":"calorie","systemDomainName":"local-system","display":"Calorie"}]},"fullUrl":"urn:uuid:e8865e11-d185-4537-855b-0cef4b74a6cb","valueQuantity":{"unit":"kcal/s","system":"http://unitsofmeasure.org","code":"kcal/s","value":245.5}}],"code":{"coding":[{"system":"http://local-system","code":"calorie","systemDomainName":"local-system","display":"Calorie"}]},"effectivePeriod":{"start":"2021-06-17T03:00:00+03:00","end":"2021-06-18T02:59:59+03:00"},"subject":{"reference":"https://opensource.samsung.com/projects/helifit/patient/user12@puglia.gatekeeper.com","display":"60b36ccc05f8c40fc9428105"},"derivedFrom":[{"reference":"https://opensource.samsung.com/projects/helifit/observation/rygfldshgflasdgfadljfgaljfgaljg","display":"rygfldshgflasdgfadljfgaljfgaljg"}],"id":"rygfldshgflasdgfadljfgaljfgaljg-calorie","device":{"identifier":{"system":"https://opensource.samsung.com/projects/helifit/device","value":"VfS0qUERdZ"}},"resourceType":"Observation","status":"final"},"fullUrl":"https://opensource.samsung.com/projects/helifit/observation/rygfldshgflasdgfadljfgaljfgaljg-calorie"},{"request":{"method":"POST","url":"Observation"},"resource":{"identifier":[{"system":"https://opensource.samsung.com/projects/helifit/identifier","value":"rygfldshgflasdgfadljfgaljfgaljg-calorie-0"}],"code":{"coding":[{"system":"http://samsung/live-data","code":"live_data_calorie","systemDomainName":"samsung","display":"Live data calorie"}]},"effectivePeriod":{"start":"2021-06-17T03:00:00+03:00","end":"2021-06-17T03:09:59+03:00"},"subject":{"reference":"https://opensource.samsung.com/projects/helifit/patient/user12@puglia.gatekeeper.com","display":"60b36ccc05f8c40fc9428105"},"derivedFrom":[{"reference":"https://opensource.samsung.com/projects/helifit/observation/rygfldshgflasdgfadljfgaljfgaljg-calorie","display":"rygfldshgflasdgfadljfgaljfgaljg-calorie"}],"id":"rygfldshgflasdgfadljfgaljfgaljg-calorie-0","device":{"identifier":{"system":"https://opensource.samsung.com/projects/helifit/device","value":"VfS0qUERdZ"}},"resourceType":"Observation","status":"final","valueQuantity":{"unit":"kcal/s","system":"http://unitsofmeasure.org","code":"kcal/s","value":0}},"fullUrl":"https://opensource.samsung.com/projects/helifit/observation/rygfldshgflasdgfadljfgaljfgaljg-calorie-0"},{"request":{"method":"POST","url":"Observation"},"resource":{"identifier":[{"system":"https://opensource.samsung.com/projects/helifit/identifier","value":"rygfldshgflasdgfadljfgaljfgaljg-calorie-1"}],"code":{"coding":[{"system":"http://samsung/live-data","code":"live_data_calorie","systemDomainName":"samsung","display":"Live data calorie"}]},"effectivePeriod":{"start":"2021-06-17T03:10:00+03:00","end":"2021-06-17T03:19:59+03:00"},"subject":{"reference":"https://opensource.samsung.com/projects/helifit/patient/user12@puglia.gatekeeper.com","display":"60b36ccc05f8c40fc9428105"},"derivedFrom":[{"reference":"https://opensource.samsung.com/projects/helifit/observation/rygfldshgflasdgfadljfgaljfgaljg-calorie","display":"rygfldshgflasdgfadljfgaljfgaljg-calorie"}],"id":"rygfldshgflasdgfadljfgaljfgaljg-calorie-1","device":{"identifier":{"system":"https://opensource.samsung.com/projects/helifit/device","value":"VfS0qUERdZ"}},"resourceType":"Observation","status":"final","valueQuantity":{"unit":"kcal/s","system":"http://unitsofmeasure.org","code":"kcal/s","value":0}},"fullUrl":"https://opensource.samsung.com/projects/helifit/observation/rygfldshgflasdgfadljfgaljfgaljg-calorie-1"},{"request":{"method":"POST","url":"Observation"},"resource":{"identifier":[{"system":"https://opensource.samsung.com/projects/helifit/identifier","value":"rygfldshgflasdgfadljfgaljfgaljg-calorie-2"}],"code":{"coding":[{"system":"http://samsung/live-data","code":"live_data_calorie","systemDomainName":"samsung","display":"Live data calorie"}]},"effectivePeriod":{"start":"2021-06-17T15:10:00+03:00","end":"2021-06-17T15:19:59+03:00"},"subject":{"reference":"https://opensource.samsung.com/projects/helifit/patient/user12@puglia.gatekeeper.com","display":"60b36ccc05f8c40fc9428105"},"derivedFrom":[{"reference":"https://opensource.samsung.com/projects/helifit/observation/rygfldshgflasdgfadljfgaljfgaljg-calorie","display":"rygfldshgflasdgfadljfgaljfgaljg-calorie"}],"id":"rygfldshgflasdgfadljfgaljfgaljg-calorie-2","device":{"identifier":{"system":"https://opensource.samsung.com/projects/helifit/device","value":"VfS0qUERdZ"}},"resourceType":"Observation","status":"final","valueQuantity":{"unit":"kcal/s","system":"http://unitsofmeasure.org","code":"kcal/s","value":0.25999999046325684}},"fullUrl":"https://opensource.samsung.com/projects/helifit/observation/rygfldshgflasdgfadljfgaljfgaljg-calorie-2"},{"request":{"method":"POST","url":"Observation"},"resource":{"identifier":[{"system":"https://opensource.samsung.com/projects/helifit/identifier","value":"rygfldshgflasdgfadljfgaljfgaljg-count"}],"component":[{"resourceId":"rygfldshgflasdgfadljfgaljfgaljg-count","code":{"coding":[{"system":"http://local-system","code":"count","systemDomainName":"local-system","display":"Count"}]},"fullUrl":"urn:uuid:4f189479-a5ae-4749-8e7c-e186380ae5b0","valueQuantity":{"unit":"...","system":"http://unitsofmeasure.org","code":"...","value":6739}}],"code":{"coding":[{"system":"http://local-system","code":"count","systemDomainName":"local-system","display":"Count"}]},"effectivePeriod":{"start":"2021-06-17T03:00:00+03:00","end":"2021-06-18T02:59:59+03:00"},"subject":{"reference":"https://opensource.samsung.com/projects/helifit/patient/user12@puglia.gatekeeper.com","display":"60b36ccc05f8c40fc9428105"},"derivedFrom":[{"reference":"https://opensource.samsung.com/projects/helifit/observation/rygfldshgflasdgfadljfgaljfgaljg","display":"rygfldshgflasdgfadljfgaljfgaljg"}],"id":"rygfldshgflasdgfadljfgaljfgaljg-count","device":{"identifier":{"system":"https://opensource.samsung.com/projects/helifit/device","value":"VfS0qUERdZ"}},"resourceType":"Observation","status":"final"},"fullUrl":"https://opensource.samsung.com/projects/helifit/observation/rygfldshgflasdgfadljfgaljfgaljg-count"},{"request":{"method":"POST","url":"Observation"},"resource":{"identifier":[{"system":"https://opensource.samsung.com/projects/helifit/identifier","value":"rygfldshgflasdgfadljfgaljfgaljg-count-0"}],"code":{"coding":[{"system":"http://samsung/live-data","code":"live_data_count","systemDomainName":"samsung","display":"Live data count"}]},"effectivePeriod":{"start":"2021-06-17T03:00:00+03:00","end":"2021-06-17T03:09:59+03:00"},"subject":{"reference":"https://opensource.samsung.com/projects/helifit/patient/user12@puglia.gatekeeper.com","display":"60b36ccc05f8c40fc9428105"},"derivedFrom":[{"reference":"https://opensource.samsung.com/projects/helifit/observation/rygfldshgflasdgfadljfgaljfgaljg-count","display":"rygfldshgflasdgfadljfgaljfgaljg-count"}],"id":"rygfldshgflasdgfadljfgaljfgaljg-count-0","device":{"identifier":{"system":"https://opensource.samsung.com/projects/helifit/device","value":"VfS0qUERdZ"}},"resourceType":"Observation","status":"final","valueQuantity":{"unit":"...","system":"http://unitsofmeasure.org","code":"...","value":0}},"fullUrl":"https://opensource.samsung.com/projects/helifit/observation/rygfldshgflasdgfadljfgaljfgaljg-count-0"},{"request":{"method":"POST","url":"Observation"},"resource":{"identifier":[{"system":"https://opensource.samsung.com/projects/helifit/identifier","value":"rygfldshgflasdgfadljfgaljfgaljg-count-1"}],"code":{"coding":[{"system":"http://samsung/live-data","code":"live_data_count","systemDomainName":"samsung","display":"Live data count"}]},"effectivePeriod":{"start":"2021-06-17T03:10:00+03:00","end":"2021-06-17T03:19:59+03:00"},"subject":{"reference":"https://opensource.samsung.com/projects/helifit/patient/user12@puglia.gatekeeper.com","display":"60b36ccc05f8c40fc9428105"},"derivedFrom":[{"reference":"https://opensource.samsung.com/projects/helifit/observation/rygfldshgflasdgfadljfgaljfgaljg-count","display":"rygfldshgflasdgfadljfgaljfgaljg-count"}],"id":"rygfldshgflasdgfadljfgaljfgaljg-count-1","device":{"identifier":{"system":"https://opensource.samsung.com/projects/helifit/device","value":"VfS0qUERdZ"}},"resourceType":"Observation","status":"final","valueQuantity":{"unit":"...","system":"http://unitsofmeasure.org","code":"...","value":0}},"fullUrl":"https://opensource.samsung.com/projects/helifit/observation/rygfldshgflasdgfadljfgaljfgaljg-count-1"},{"request":{"method":"POST","url":"Observation"},"resource":{"identifier":[{"system":"https://opensource.samsung.com/projects/helifit/identifier","value":"rygfldshgflasdgfadljfgaljfgaljg-count-2"}],"code":{"coding":[{"system":"http://samsung/live-data","code":"live_data_count","systemDomainName":"samsung","display":"Live data count"}]},"effectivePeriod":{"start":"2021-06-17T15:10:00+03:00","end":"2021-06-17T15:19:59+03:00"},"subject":{"reference":"https://opensource.samsung.com/projects/helifit/patient/user12@puglia.gatekeeper.com","display":"60b36ccc05f8c40fc9428105"},"derivedFrom":[{"reference":"https://opensource.samsung.com/projects/helifit/observation/rygfldshgflasdgfadljfgaljfgaljg-count","display":"rygfldshgflasdgfadljfgaljfgaljg-count"}],"id":"rygfldshgflasdgfadljfgaljfgaljg-count-2","device":{"identifier":{"system":"https://opensource.samsung.com/projects/helifit/device","value":"VfS0qUERdZ"}},"resourceType":"Observation","status":"final","valueQuantity":{"unit":"...","system":"http://unitsofmeasure.org","code":"...","value":7}},"fullUrl":"https://opensource.samsung.com/projects/helifit/observation/rygfldshgflasdgfadljfgaljfgaljg-count-2"},{"request":{"method":"POST","url":"Observation"},"resource":{"identifier":[{"system":"https://opensource.samsung.com/projects/helifit/identifier","value":"rygfldshgflasdgfadljfgaljfgaljg-distance"}],"component":[{"resourceId":"rygfldshgflasdgfadljfgaljfgaljg-distance","code":{"coding":[{"system":"http://local-system","code":"distance","systemDomainName":"local-system","display":"Distance"}]},"fullUrl":"urn:uuid:9396239a-d249-4af6-b51d-5b9f899f2a82","valueQuantity":{"unit":"m","system":"http://unitsofmeasure.org","code":"m","value":5017.739}}],"code":{"coding":[{"system":"http://local-system","code":"distance","systemDomainName":"local-system","display":"Distance"}]},"effectivePeriod":{"start":"2021-06-17T03:00:00+03:00","end":"2021-06-18T02:59:59+03:00"},"subject":{"reference":"https://opensource.samsung.com/projects/helifit/patient/user12@puglia.gatekeeper.com","display":"60b36ccc05f8c40fc9428105"},"derivedFrom":[{"reference":"https://opensource.samsung.com/projects/helifit/observation/rygfldshgflasdgfadljfgaljfgaljg","display":"rygfldshgflasdgfadljfgaljfgaljg"}],"id":"rygfldshgflasdgfadljfgaljfgaljg-distance","device":{"identifier":{"system":"https://opensource.samsung.com/projects/helifit/device","value":"VfS0qUERdZ"}},"resourceType":"Observation","status":"final"},"fullUrl":"https://opensource.samsung.com/projects/helifit/observation/rygfldshgflasdgfadljfgaljfgaljg-distance"},{"request":{"method":"POST","url":"Observation"},"resource":{"identifier":[{"system":"https://opensource.samsung.com/projects/helifit/identifier","value":"rygfldshgflasdgfadljfgaljfgaljg-distance-0"}],"code":{"coding":[{"system":"http://samsung/live-data","code":"live_data_distance","systemDomainName":"samsung","display":"Live data distance"}]},"effectivePeriod":{"start":"2021-06-17T03:00:00+03:00","end":"2021-06-17T03:09:59+03:00"},"subject":{"reference":"https://opensource.samsung.com/projects/helifit/patient/user12@puglia.gatekeeper.com","display":"60b36ccc05f8c40fc9428105"},"derivedFrom":[{"reference":"https://opensource.samsung.com/projects/helifit/observation/rygfldshgflasdgfadljfgaljfgaljg-distance","display":"rygfldshgflasdgfadljfgaljfgaljg-distance"}],"id":"rygfldshgflasdgfadljfgaljfgaljg-distance-0","device":{"identifier":{"system":"https://opensource.samsung.com/projects/helifit/device","value":"VfS0qUERdZ"}},"resourceType":"Observation","status":"final","valueQuantity":{"unit":"m","system":"http://unitsofmeasure.org","code":"m","value":0}},"fullUrl":"https://opensource.samsung.com/projects/helifit/observation/rygfldshgflasdgfadljfgaljfgaljg-distance-0"},{"request":{"method":"POST","url":"Observation"},"resource":{"identifier":[{"system":"https://opensource.samsung.com/projects/helifit/identifier","value":"rygfldshgflasdgfadljfgaljfgaljg-distance-1"}],"code":{"coding":[{"system":"http://samsung/live-data","code":"live_data_distance","systemDomainName":"samsung","display":"Live data distance"}]},"effectivePeriod":{"start":"2021-06-17T03:10:00+03:00","end":"2021-06-17T03:19:59+03:00"},"subject":{"reference":"https://opensource.samsung.com/projects/helifit/patient/user12@puglia.gatekeeper.com","display":"60b36ccc05f8c40fc9428105"},"derivedFrom":[{"reference":"https://opensource.samsung.com/projects/helifit/observation/rygfldshgflasdgfadljfgaljfgaljg-distance","display":"rygfldshgflasdgfadljfgaljfgaljg-distance"}],"id":"rygfldshgflasdgfadljfgaljfgaljg-distance-1","device":{"identifier":{"system":"https://opensource.samsung.com/projects/helifit/device","value":"VfS0qUERdZ"}},"resourceType":"Observation","status":"final","valueQuantity":{"unit":"m","system":"http://unitsofmeasure.org","code":"m","value":0}},"fullUrl":"https://opensource.samsung.com/projects/helifit/observation/rygfldshgflasdgfadljfgaljfgaljg-distance-1"},{"request":{"method":"POST","url":"Observation"},"resource":{"identifier":[{"system":"https://opensource.samsung.com/projects/helifit/identifier","value":"rygfldshgflasdgfadljfgaljfgaljg-distance-2"}],"code":{"coding":[{"system":"http://samsung/live-data","code":"live_data_distance","systemDomainName":"samsung","display":"Live data distance"}]},"effectivePeriod":{"start":"2021-06-17T15:10:00+03:00","end":"2021-06-17T15:19:59+03:00"},"subject":{"reference":"https://opensource.samsung.com/projects/helifit/patient/user12@puglia.gatekeeper.com","display":"60b36ccc05f8c40fc9428105"},"derivedFrom":[{"reference":"https://opensource.samsung.com/projects/helifit/observation/rygfldshgflasdgfadljfgaljfgaljg-distance","display":"rygfldshgflasdgfadljfgaljfgaljg-distance"}],"id":"rygfldshgflasdgfadljfgaljfgaljg-distance-2","device":{"identifier":{"system":"https://opensource.samsung.com/projects/helifit/device","value":"VfS0qUERdZ"}},"resourceType":"Observation","status":"final","valueQuantity":{"unit":"m","system":"http://unitsofmeasure.org","code":"m","value":4.920000076293945}},"fullUrl":"https://opensource.samsung.com/projects/helifit/observation/rygfldshgflasdgfadljfgaljfgaljg-distance-2"},{"request":{"method":"POST","url":"Observation"},"resource":{"identifier":[{"system":"https://opensource.samsung.com/projects/helifit/identifier","value":"rygfldshgflasdgfadljfgaljfgaljg-speed"}],"component":[{"resourceId":"rygfldshgflasdgfadljfgaljfgaljg-speed","code":{"coding":[{"system":"http://local-system","code":"speed","systemDomainName":"local-system","display":"Speed"}]},"fullUrl":"urn:uuid:2000d559-0419-4a70-bca3-64355ef5accb","valueQuantity":{"unit":"m/s","system":"http://unitsofmeasure.org","code":"m/s","value":1.293332}}],"code":{"coding":[{"system":"http://local-system","code":"speed","systemDomainName":"local-system","display":"Speed"}]},"effectivePeriod":{"start":"2021-06-17T03:00:00+03:00","end":"2021-06-18T02:59:59+03:00"},"subject":{"reference":"https://opensource.samsung.com/projects/helifit/patient/user12@puglia.gatekeeper.com","display":"60b36ccc05f8c40fc9428105"},"derivedFrom":[{"reference":"https://opensource.samsung.com/projects/helifit/observation/rygfldshgflasdgfadljfgaljfgaljg","display":"rygfldshgflasdgfadljfgaljfgaljg"}],"id":"rygfldshgflasdgfadljfgaljfgaljg-speed","device":{"identifier":{"system":"https://opensource.samsung.com/projects/helifit/device","value":"VfS0qUERdZ"}},"resourceType":"Observation","status":"final"},"fullUrl":"https://opensource.samsung.com/projects/helifit/observation/rygfldshgflasdgfadljfgaljfgaljg-speed"},{"request":{"method":"POST","url":"Observation"},"resource":{"identifier":[{"system":"https://opensource.samsung.com/projects/helifit/identifier","value":"rygfldshgflasdgfadljfgaljfgaljg-speed-0"}],"code":{"coding":[{"system":"http://samsung/live-data","code":"live_data_speed","systemDomainName":"samsung","display":"Live data speed"}]},"effectivePeriod":{"start":"2021-06-17T03:00:00+03:00","end":"2021-06-17T03:09:59+03:00"},"subject":{"reference":"https://opensource.samsung.com/projects/helifit/patient/user12@puglia.gatekeeper.com","display":"60b36ccc05f8c40fc9428105"},"derivedFrom":[{"reference":"https://opensource.samsung.com/projects/helifit/observation/rygfldshgflasdgfadljfgaljfgaljg-speed","display":"rygfldshgflasdgfadljfgaljfgaljg-speed"}],"id":"rygfldshgflasdgfadljfgaljfgaljg-speed-0","device":{"identifier":{"system":"https://opensource.samsung.com/projects/helifit/device","value":"VfS0qUERdZ"}},"resourceType":"Observation","status":"final","valueQuantity":{"unit":"m/s","system":"http://unitsofmeasure.org","code":"m/s","value":0}},"fullUrl":"https://opensource.samsung.com/projects/helifit/observation/rygfldshgflasdgfadljfgaljfgaljg-speed-0"},{"request":{"method":"POST","url":"Observation"},"resource":{"identifier":[{"system":"https://opensource.samsung.com/projects/helifit/identifier","value":"rygfldshgflasdgfadljfgaljfgaljg-speed-1"}],"code":{"coding":[{"system":"http://samsung/live-data","code":"live_data_speed","systemDomainName":"samsung","display":"Live data speed"}]},"effectivePeriod":{"start":"2021-06-17T03:10:00+03:00","end":"2021-06-17T03:19:59+03:00"},"subject":{"reference":"https://opensource.samsung.com/projects/helifit/patient/user12@puglia.gatekeeper.com","display":"60b36ccc05f8c40fc9428105"},"derivedFrom":[{"reference":"https://opensource.samsung.com/projects/helifit/observation/rygfldshgflasdgfadljfgaljfgaljg-speed","display":"rygfldshgflasdgfadljfgaljfgaljg-speed"}],"id":"rygfldshgflasdgfadljfgaljfgaljg-speed-1","device":{"identifier":{"system":"https://opensource.samsung.com/projects/helifit/device","value":"VfS0qUERdZ"}},"resourceType":"Observation","status":"final","valueQuantity":{"unit":"m/s","system":"http://unitsofmeasure.org","code":"m/s","value":0}},"fullUrl":"https://opensource.samsung.com/projects/helifit/observation/rygfldshgflasdgfadljfgaljfgaljg-speed-1"},{"request":{"method":"POST","url":"Observation"},"resource":{"identifier":[{"system":"https://opensource.samsung.com/projects/helifit/identifier","value":"rygfldshgflasdgfadljfgaljfgaljg-speed-2"}],"code":{"coding":[{"system":"http://samsung/live-data","code":"live_data_speed","systemDomainName":"samsung","display":"Live data speed"}]},"effectivePeriod":{"start":"2021-06-17T15:10:00+03:00","end":"2021-06-17T15:19:59+03:00"},"subject":{"reference":"https://opensource.samsung.com/projects/helifit/patient/user12@puglia.gatekeeper.com","display":"60b36ccc05f8c40fc9428105"},"derivedFrom":[{"reference":"https://opensource.samsung.com/projects/helifit/observation/rygfldshgflasdgfadljfgaljfgaljg-speed","display":"rygfldshgflasdgfadljfgaljfgaljg-speed"}],"id":"rygfldshgflasdgfadljfgaljfgaljg-speed-2","device":{"identifier":{"system":"https://opensource.samsung.com/projects/helifit/device","value":"VfS0qUERdZ"}},"resourceType":"Observation","status":"final","valueQuantity":{"unit":"m/s","system":"http://unitsofmeasure.org","code":"m/s","value":3.200000047683716}},"fullUrl":"https://opensource.samsung.com/projects/helifit/observation/rygfldshgflasdgfadljfgaljfgaljg-speed-2"}],"type":"transaction","resourceType":"Bundle"}