{"entry":[{"request":{"method":"POST","url":"Patient"},"resource":{"identifier":[{"system":"https://opensource.samsung.com/projects/helifit/identifier","systemDomainName":"opensource_samsung_com","value":"user12@puglia.gatekeeper.com"},{"system":"https://opensource.samsung.com/projects/helifit/identifier","systemDomainName":"opensource_samsung_com","value":"60b36ccc05f8c40fc9428105"}],"id":"60b36ccc05f8c40fc9428105","resourceType":"Patient"},"fullUrl":"https://opensource.samsung.com/projects/helifit/patient/user12@puglia.gatekeeper.com"},{"request":{"method":"POST","url":"Observation"},"resource":{"identifier":[{"system":"https://opensource.samsung.com/projects/helifit/identifier","value":"Observation/665473892564789000228"}],"code":{"coding":[{"system":"http://local-system","code":"swimming","systemDomainName":"local-system","display":"Swimming"}]},"effectivePeriod":{"start":"2021-06-18T18:27:55+03:00","end":"2021-06-18T18:39:07+03:00"},"subject":{"reference":"https://opensource.samsung.com/projects/helifit/patient/user12@puglia.gatekeeper.com","display":"60b36ccc05f8c40fc9428105"},"id":"665473892564789000228","device":{"identifier":{"system":"https://opensource.samsung.com/projects/helifit/device","value":"XaIq54it7a"}},"resourceType":"Observation","status":"final"},"fullUrl":"https://opensource.samsung.com/projects/helifit/observation/665473892564789000228"},{"request":{"method":"POST","url":"Observation"},"resource":{"identifier":[{"system":"https://opensource.samsung.com/projects/helifit/identifier","value":"665473892564789000228-calorie"}],"component":[{"resourceId":"665473892564789000228-calorie","code":{"coding":[{"system":"http://local-system","code":"calorie","systemDomainName":"local-system","display":"Calorie"}]},"fullUrl":"urn:uuid:f2d2fa73-4442-459d-9639-abcc18d1ace4","valueQuantity":{"unit":"kcal/s","system":"http://unitsofmeasure.org","code":"kcal/s","value":44}},{"resourceId":"665473892564789000228-calorie","code":{"coding":[{"system":"http://local-system","code":"mean_caloricburn_rate","systemDomainName":"local-system","display":"Mean caloric burn rate"}]},"fullUrl":"urn:uuid:3952b22b-97fb-4bd5-b3cd-e83627c56ee7","valueQuantity":{"unit":"kcal/s","system":"http://unitsofmeasure.org","code":"kcal/s","value":8934578}},{"resourceId":"665473892564789000228-calorie","code":{"coding":[{"system":"http://local-system","code":"max_caloricburn_rate","systemDomainName":"local-system","display":"Max caloric burn rate"}]},"fullUrl":"urn:uuid:4a00e16a-8079-48bd-b341-06c43864c08f","valueQuantity":{"unit":"kcal/s","system":"http://unitsofmeasure.org","code":"kcal/s","value":8934578}}],"code":{"coding":[{"system":"http://local-system","code":"calorie","systemDomainName":"local-system","display":"Calorie"}]},"effectivePeriod":{"start":"2021-06-18T18:27:55+03:00","end":"2021-06-18T18:39:07+03:00"},"subject":{"reference":"https://opensource.samsung.com/projects/helifit/patient/user12@puglia.gatekeeper.com","display":"60b36ccc05f8c40fc9428105"},"derivedFrom":[{"reference":"https://opensource.samsung.com/projects/helifit/observation/665473892564789000228","display":"665473892564789000228"}],"id":"665473892564789000228-calorie","device":{"identifier":{"system":"https://opensource.samsung.com/projects/helifit/device","value":"XaIq54it7a"}},"resourceType":"Observation","status":"final"},"fullUrl":"https://opensource.samsung.com/projects/helifit/observation/665473892564789000228-calorie"},{"request":{"method":"POST","url":"Observation"},"resource":{"identifier":[{"system":"https://opensource.samsung.com/projects/helifit/identifier","value":"665473892564789000228-count"}],"component":[{"resourceId":"665473892564789000228-count","code":{"coding":[{"system":"http://local-system","code":"count","systemDomainName":"local-system","display":"Count"}]},"fullUrl":"urn:uuid:938702a1-3675-4a81-8615-43f077fa1c8c","valueQuantity":{"unit":"...","system":"http://unitsofmeasure.org","code":"...","value":75645423}},{"resourceId":"665473892564789000228-count","code":{"coding":[{"system":"http://local-system","code":"count_type","systemDomainName":"local-system","display":"Count type"}]},"fullUrl":"urn:uuid:c0ccdeaf-1aa7-4962-90dd-dcb3ad7cf008","valueQuantity":{"value":1}}],"code":{"coding":[{"system":"http://local-system","code":"count","systemDomainName":"local-system","display":"Count"}]},"effectivePeriod":{"start":"2021-06-18T18:27:55+03:00","end":"2021-06-18T18:39:07+03:00"},"subject":{"reference":"https://opensource.samsung.com/projects/helifit/patient/user12@puglia.gatekeeper.com","display":"60b36ccc05f8c40fc9428105"},"derivedFrom":[{"reference":"https://opensource.samsung.com/projects/helifit/observation/665473892564789000228","display":"665473892564789000228"}],"id":"665473892564789000228-count","device":{"identifier":{"system":"https://opensource.samsung.com/projects/helifit/device","value":"XaIq54it7a"}},"resourceType":"Observation","status":"final"},"fullUrl":"https://opensource.samsung.com/projects/helifit/observation/665473892564789000228-count"},{"request":{"method":"POST","url":"Observation"},"resource":{"identifier":[{"system":"https://opensource.samsung.com/projects/helifit/identifier","value":"665473892564789000228-count-0"}],"code":{"coding":[{"system":"http://samsung/live-data","code":"live_data_count","systemDomainName":"samsung","display":"Live data count"}]},"effectivePeriod":{"start":"2015-01-28T16:58:16+02:00","end":"2021-06-18T09:47:59+03:00"},"subject":{"reference":"https://opensource.samsung.com/projects/helifit/patient/user12@puglia.gatekeeper.com","display":"60b36ccc05f8c40fc9428105"},"derivedFrom":[{"reference":"https://opensource.samsung.com/projects/helifit/observation/665473892564789000228-count","display":"665473892564789000228-count"}],"id":"665473892564789000228-count-0","device":{"identifier":{"system":"https://opensource.samsung.com/projects/helifit/device","value":"XaIq54it7a"}},"resourceType":"Observation","status":"final","valueQuantity":{"unit":"...","system":"http://unitsofmeasure.org","code":"...","value":83}},"fullUrl":"https://opensource.samsung.com/projects/helifit/observation/665473892564789000228-count-0"},{"request":{"method":"POST","url":"Observation"},"resource":{"identifier":[{"system":"https://opensource.samsung.com/projects/helifit/identifier","value":"665473892564789000228-count-1"}],"code":{"coding":[{"system":"http://samsung/live-data","code":"live_data_count","systemDomainName":"samsung","display":"Live data count"}]},"effectivePeriod":{"start":"2021-06-18T10:03:00+03:00","end":"2021-06-18T10:03:59+03:00"},"subject":{"reference":"https://opensource.samsung.com/projects/helifit/patient/user12@puglia.gatekeeper.com","display":"60b36ccc05f8c40fc9428105"},"derivedFrom":[{"reference":"https://opensource.samsung.com/projects/helifit/observation/665473892564789000228-count","display":"665473892564789000228-count"}],"id":"665473892564789000228-count-1","device":{"identifier":{"system":"https://opensource.samsung.com/projects/helifit/device","value":"XaIq54it7a"}},"resourceType":"Observation","status":"final","valueQuantity":{"unit":"...","system":"http://unitsofmeasure.org","code":"...","value":85}},"fullUrl":"https://opensource.samsung.com/projects/helifit/observation/665473892564789000228-count-1"},{"request":{"method":"POST","url":"Observation"},"resource":{"identifier":[{"system":"https://opensource.samsung.com/projects/helifit/identifier","value":"665473892564789000228-distance"}],"component":[{"resourceId":"665473892564789000228-distance","code":{"coding":[{"system":"http://local-system","code":"incline_distance","systemDomainName":"local-system","display":"Incline distance"}]},"fullUrl":"urn:uuid:834a7a1b-c07b-434f-8fc6-a1cfb2e52c27","valueQuantity":{"unit":"m","system":"http://unitsofmeasure.org","code":"m","value":43343}},{"resourceId":"665473892564789000228-distance","code":{"coding":[{"system":"http://local-system","code":"decline_distance","systemDomainName":"local-system","display":"Decline distance"}]},"fullUrl":"urn:uuid:f96175cb-2b03-4a47-8213-a73e2318d1ff","valueQuantity":{"unit":"m","system":"http://unitsofmeasure.org","code":"m","value":76543}}],"code":{"coding":[{"system":"http://local-system","code":"distance","systemDomainName":"local-system","display":"Distance"}]},"effectivePeriod":{"start":"2021-06-18T18:27:55+03:00","end":"2021-06-18T18:39:07+03:00"},"subject":{"reference":"https://opensource.samsung.com/projects/helifit/patient/user12@puglia.gatekeeper.com","display":"60b36ccc05f8c40fc9428105"},"derivedFrom":[{"reference":"https://opensource.samsung.com/projects/helifit/observation/665473892564789000228","display":"665473892564789000228"}],"id":"665473892564789000228-distance","device":{"identifier":{"system":"https://opensource.samsung.com/projects/helifit/device","value":"XaIq54it7a"}},"resourceType":"Observation","status":"final"},"fullUrl":"https://opensource.samsung.com/projects/helifit/observation/665473892564789000228-distance"},{"request":{"method":"POST","url":"Observation"},"resource":{"identifier":[{"system":"https://opensource.samsung.com/projects/helifit/identifier","value":"665473892564789000228-distance-0"}],"code":{"coding":[{"system":"http://samsung/live-data","code":"live_data_distance","systemDomainName":"samsung","display":"Live data distance"}]},"effectivePeriod":{"start":"2015-01-28T16:58:16+02:00","end":"2021-06-18T09:47:59+03:00"},"subject":{"reference":"https://opensource.samsung.com/projects/helifit/patient/user12@puglia.gatekeeper.com","display":"60b36ccc05f8c40fc9428105"},"derivedFrom":[{"reference":"https://opensource.samsung.com/projects/helifit/observation/665473892564789000228-distance","display":"665473892564789000228-distance"}],"id":"665473892564789000228-distance-0","device":{"identifier":{"system":"https://opensource.samsung.com/projects/helifit/device","value":"XaIq54it7a"}},"resourceType":"Observation","status":"final","valueQuantity":{"unit":"m","system":"http://unitsofmeasure.org","code":"m","value":250}},"fullUrl":"https://opensource.samsung.com/projects/helifit/observation/665473892564789000228-distance-0"},{"request":{"method":"POST","url":"Observation"},"resource":{"identifier":[{"system":"https://opensource.samsung.com/projects/helifit/identifier","value":"665473892564789000228-distance-1"}],"code":{"coding":[{"system":"http://samsung/live-data","code":"live_data_distance","systemDomainName":"samsung","display":"Live data distance"}]},"effectivePeriod":{"start":"2021-06-18T10:03:00+03:00","end":"2021-06-18T10:03:59+03:00"},"subject":{"reference":"https://opensource.samsung.com/projects/helifit/patient/user12@puglia.gatekeeper.com","display":"60b36ccc05f8c40fc9428105"},"derivedFrom":[{"reference":"https://opensource.samsung.com/projects/helifit/observation/665473892564789000228-distance","display":"665473892564789000228-distance"}],"id":"665473892564789000228-distance-1","device":{"identifier":{"system":"https://opensource.samsung.com/projects/helifit/device","value":"XaIq54it7a"}},"resourceType":"Observation","status":"final","valueQuantity":{"unit":"m","system":"http://unitsofmeasure.org","code":"m","value":250}},"fullUrl":"https://opensource.samsung.com/projects/helifit/observation/665473892564789000228-distance-1"},{"request":{"method":"POST","url":"Observation"},"resource":{"identifier":[{"system":"https://opensource.samsung.com/projects/helifit/identifier","value":"665473892564789000228-speed"}],"component":[{"resourceId":"665473892564789000228-speed","code":{"coding":[{"system":"http://local-system","code":"mean_speed","systemDomainName":"local-system","display":"Mean speed"}]},"fullUrl":"urn:uuid:39447771-3251-48e6-b2ee-fcaec2e3d9ed","valueQuantity":{"unit":"m/s","system":"http://unitsofmeasure.org","code":"m/s","value":243242}},{"resourceId":"665473892564789000228-speed","code":{"coding":[{"system":"http://local-system","code":"max_speed","systemDomainName":"local-system","display":"Max speed"}]},"fullUrl":"urn:uuid:db7be378-2f5c-4a26-972d-a24f52e6a960","valueQuantity":{"unit":"m/s","system":"http://unitsofmeasure.org","code":"m/s","value":75676}}],"code":{"coding":[{"system":"http://local-system","code":"speed","systemDomainName":"local-system","display":"Speed"}]},"effectivePeriod":{"start":"2021-06-18T18:27:55+03:00","end":"2021-06-18T18:39:07+03:00"},"subject":{"reference":"https://opensource.samsung.com/projects/helifit/patient/user12@puglia.gatekeeper.com","display":"60b36ccc05f8c40fc9428105"},"derivedFrom":[{"reference":"https://opensource.samsung.com/projects/helifit/observation/665473892564789000228","display":"665473892564789000228"}],"id":"665473892564789000228-speed","device":{"identifier":{"system":"https://opensource.samsung.com/projects/helifit/device","value":"XaIq54it7a"}},"resourceType":"Observation","status":"final"},"fullUrl":"https://opensource.samsung.com/projects/helifit/observation/665473892564789000228-speed"},{"request":{"method":"POST","url":"Observation"},"resource":{"identifier":[{"system":"https://opensource.samsung.com/projects/helifit/identifier","value":"665473892564789000228-speed-0"}],"code":{"coding":[{"system":"http://samsung/live-data","code":"live_data_speed","systemDomainName":"samsung","display":"Live data speed"}]},"effectivePeriod":{"start":"2015-01-28T16:58:16+02:00","end":"2021-06-18T09:47:59+03:00"},"subject":{"reference":"https://opensource.samsung.com/projects/helifit/patient/user12@puglia.gatekeeper.com","display":"60b36ccc05f8c40fc9428105"},"derivedFrom":[{"reference":"https://opensource.samsung.com/projects/helifit/observation/665473892564789000228-speed","display":"665473892564789000228-speed"}],"id":"665473892564789000228-speed-0","device":{"identifier":{"system":"https://opensource.samsung.com/projects/helifit/device","value":"XaIq54it7a"}},"resourceType":"Observation","status":"final","valueQuantity":{"unit":"m/s","system":"http://unitsofmeasure.org","code":"m/s","value":11.061617}},"fullUrl":"https://opensource.samsung.com/projects/helifit/observation/665473892564789000228-speed-0"},{"request":{"method":"POST","url":"Observation"},"resource":{"identifier":[{"system":"https://opensource.samsung.com/projects/helifit/identifier","value":"665473892564789000228-speed-1"}],"code":{"coding":[{"system":"http://samsung/live-data","code":"live_data_speed","systemDomainName":"samsung","display":"Live data speed"}]},"effectivePeriod":{"start":"2021-06-18T10:03:00+03:00","end":"2021-06-18T10:03:59+03:00"},"subject":{"reference":"https://opensource.samsung.com/projects/helifit/patient/user12@puglia.gatekeeper.com","display":"60b36ccc05f8c40fc9428105"},"derivedFrom":[{"reference":"https://opensource.samsung.com/projects/helifit/observation/665473892564789000228-speed","display":"665473892564789000228-speed"}],"id":"665473892564789000228-speed-1","device":{"identifier":{"system":"https://opensource.samsung.com/projects/helifit/device","value":"XaIq54it7a"}},"resourceType":"Observation","status":"final","valueQuantity":{"unit":"m/s","system":"http://unitsofmeasure.org","code":"m/s","value":11.061617}},"fullUrl":"https://opensource.samsung.com/projects/helifit/observation/665473892564789000228-speed-1"},{"request":{"method":"POST","url":"Observation"},"resource":{"identifier":[{"system":"https://opensource.samsung.com/projects/helifit/identifier","value":"665473892564789000228-cadence"}],"component":[{"resourceId":"665473892564789000228-cadence","code":{"coding":[{"system":"http://local-system","code":"mean_cadence","systemDomainName":"local-system","display":"Mean Cadence"}]},"fullUrl":"urn:uuid:d3ec060d-43b4-4c39-ac59-081e169ff5ec","valueQuantity":{"unit":"m/s","system":"http://unitsofmeasure.org","code":"m/s","value":65432}},{"resourceId":"665473892564789000228-cadence","code":{"coding":[{"system":"http://local-system","code":"max_cadence","systemDomainName":"local-system","display":"Max Cadence"}]},"fullUrl":"urn:uuid:484a3019-67b3-47aa-abfb-7fe5e954d3b0","valueQuantity":{"unit":"m/s","system":"http://unitsofmeasure.org","code":"m/s","value":89732}}],"code":{"coding":[{"system":"http://local-system","code":"cadence","systemDomainName":"local-system","display":"Cadence"}]},"effectivePeriod":{"start":"2021-06-18T18:27:55+03:00","end":"2021-06-18T18:39:07+03:00"},"subject":{"reference":"https://opensource.samsung.com/projects/helifit/patient/user12@puglia.gatekeeper.com","display":"60b36ccc05f8c40fc9428105"},"derivedFrom":[{"reference":"https://opensource.samsung.com/projects/helifit/observation/665473892564789000228","display":"665473892564789000228"}],"id":"665473892564789000228-cadence","device":{"identifier":{"system":"https://opensource.samsung.com/projects/helifit/device","value":"XaIq54it7a"}},"resourceType":"Observation","status":"final"},"fullUrl":"https://opensource.samsung.com/projects/helifit/observation/665473892564789000228-cadence"},{"request":{"method":"POST","url":"Observation"},"resource":{"identifier":[{"system":"https://opensource.samsung.com/projects/helifit/identifier","value":"665473892564789000228-cadence-0"}],"code":{"coding":[{"system":"http://samsung/live-data","code":"live_data_cadence","systemDomainName":"samsung","display":"Live data cadence"}]},"effectivePeriod":{"start":"2015-01-28T16:58:16+02:00","end":"2021-06-18T09:47:59+03:00"},"subject":{"reference":"https://opensource.samsung.com/projects/helifit/patient/user12@puglia.gatekeeper.com","display":"60b36ccc05f8c40fc9428105"},"derivedFrom":[{"reference":"https://opensource.samsung.com/projects/helifit/observation/665473892564789000228-cadence","display":"665473892564789000228-cadence"}],"id":"665473892564789000228-cadence-0","device":{"identifier":{"system":"https://opensource.samsung.com/projects/helifit/device","value":"XaIq54it7a"}},"resourceType":"Observation","status":"final","valueQuantity":{"unit":"m/s","system":"http://unitsofmeasure.org","code":"m/s","value":95.84712}},"fullUrl":"https://opensource.samsung.com/projects/helifit/observation/665473892564789000228-cadence-0"},{"request":{"method":"POST","url":"Observation"},"resource":{"identifier":[{"system":"https://opensource.samsung.com/projects/helifit/identifier","value":"665473892564789000228-cadence-1"}],"code":{"coding":[{"system":"http://samsung/live-data","code":"live_data_cadence","systemDomainName":"samsung","display":"Live data cadence"}]},"effectivePeriod":{"start":"2021-06-18T10:03:00+03:00","end":"2021-06-18T10:03:59+03:00"},"subject":{"reference":"https://opensource.samsung.com/projects/helifit/patient/user12@puglia.gatekeeper.com","display":"60b36ccc05f8c40fc9428105"},"derivedFrom":[{"reference":"https://opensource.samsung.com/projects/helifit/observation/665473892564789000228-cadence","display":"665473892564789000228-cadence"}],"id":"665473892564789000228-cadence-1","device":{"identifier":{"system":"https://opensource.samsung.com/projects/helifit/device","value":"XaIq54it7a"}},"resourceType":"Observation","status":"final","valueQuantity":{"unit":"m/s","system":"http://unitsofmeasure.org","code":"m/s","value":95.84712}},"fullUrl":"https://opensource.samsung.com/projects/helifit/observation/665473892564789000228-cadence-1"},{"request":{"method":"POST","url":"Observation"},"resource":{"identifier":[{"system":"https://opensource.samsung.com/projects/helifit/identifier","value":"665473892564789000228-power"}],"component":[{"resourceId":"665473892564789000228-power","code":{"coding":[{"system":"http://local-system","code":"mean_power","systemDomainName":"local-system","display":"Mean Power"}]},"fullUrl":"urn:uuid:d0c76196-3cb9-4842-8e0a-ef32ef4b972e","valueQuantity":{"unit":"watt","system":"http://unitsofmeasure.org","code":"W","value":7654}},{"resourceId":"665473892564789000228-power","code":{"coding":[{"system":"http://local-system","code":"max_power","systemDomainName":"local-system","display":"Max Power"}]},"fullUrl":"urn:uuid:cd9aa46c-2942-43ff-b147-6f7fae3d5fab","valueQuantity":{"unit":"watt","system":"http://unitsofmeasure.org","code":"W","value":87654}}],"code":{"coding":[{"system":"http://local-system","code":"power","systemDomainName":"local-system","display":"Power"}]},"effectivePeriod":{"start":"2021-06-18T18:27:55+03:00","end":"2021-06-18T18:39:07+03:00"},"subject":{"reference":"https://opensource.samsung.com/projects/helifit/patient/user12@puglia.gatekeeper.com","display":"60b36ccc05f8c40fc9428105"},"derivedFrom":[{"reference":"https://opensource.samsung.com/projects/helifit/observation/665473892564789000228","display":"665473892564789000228"}],"id":"665473892564789000228-power","device":{"identifier":{"system":"https://opensource.samsung.com/projects/helifit/device","value":"XaIq54it7a"}},"resourceType":"Observation","status":"final"},"fullUrl":"https://opensource.samsung.com/projects/helifit/observation/665473892564789000228-power"},{"request":{"method":"POST","url":"Observation"},"resource":{"identifier":[{"system":"https://opensource.samsung.com/projects/helifit/identifier","value":"665473892564789000228-power-0"}],"code":{"coding":[{"system":"http://samsung/live-data","code":"live_data_power","systemDomainName":"samsung","display":"Live data power"}]},"effectivePeriod":{"start":"2015-01-28T16:58:16+02:00","end":"2021-06-18T09:47:59+03:00"},"subject":{"reference":"https://opensource.samsung.com/projects/helifit/patient/user12@puglia.gatekeeper.com","display":"60b36ccc05f8c40fc9428105"},"derivedFrom":[{"reference":"https://opensource.samsung.com/projects/helifit/observation/665473892564789000228-power","display":"665473892564789000228-power"}],"id":"665473892564789000228-power-0","device":{"identifier":{"system":"https://opensource.samsung.com/projects/helifit/device","value":"XaIq54it7a"}},"resourceType":"Observation","status":"final","valueQuantity":{"unit":"watt","system":"http://unitsofmeasure.org","code":"W","value":99.50436}},"fullUrl":"https://opensource.samsung.com/projects/helifit/observation/665473892564789000228-power-0"},{"request":{"method":"POST","url":"Observation"},"resource":{"identifier":[{"system":"https://opensource.samsung.com/projects/helifit/identifier","value":"665473892564789000228-power-1"}],"code":{"coding":[{"system":"http://samsung/live-data","code":"live_data_power","systemDomainName":"samsung","display":"Live data power"}]},"effectivePeriod":{"start":"2021-06-18T10:03:00+03:00","end":"2021-06-18T10:03:59+03:00"},"subject":{"reference":"https://opensource.samsung.com/projects/helifit/patient/user12@puglia.gatekeeper.com","display":"60b36ccc05f8c40fc9428105"},"derivedFrom":[{"reference":"https://opensource.samsung.com/projects/helifit/observation/665473892564789000228-power","display":"665473892564789000228-power"}],"id":"665473892564789000228-power-1","device":{"identifier":{"system":"https://opensource.samsung.com/projects/helifit/device","value":"XaIq54it7a"}},"resourceType":"Observation","status":"final","valueQuantity":{"unit":"watt","system":"http://unitsofmeasure.org","code":"W","value":99.50436}},"fullUrl":"https://opensource.samsung.com/projects/helifit/observation/665473892564789000228-power-1"},{"request":{"method":"POST","url":"Observation"},"resource":{"identifier":[{"system":"https://opensource.samsung.com/projects/helifit/identifier","value":"665473892564789000228-altitude"}],"component":[{"resourceId":"665473892564789000228-altitude","code":{"coding":[{"system":"http://local-system","code":"altitude_gain","systemDomainName":"local-system","display":"Altitude gain"}]},"fullUrl":"urn:uuid:79a0ebf1-5e76-4416-9bf3-4f6cc4dc23e3","valueQuantity":{"unit":"m","system":"http://unitsofmeasure.org","code":"m","value":64526}},{"resourceId":"665473892564789000228-altitude","code":{"coding":[{"system":"http://local-system","code":"altitude_loss","systemDomainName":"local-system","display":"Altitude loss"}]},"fullUrl":"urn:uuid:992c6440-2aef-4203-be19-50038f839a66","valueQuantity":{"unit":"m","system":"http://unitsofmeasure.org","code":"m","value":2345}},{"resourceId":"665473892564789000228-altitude","code":{"coding":[{"system":"http://local-system","code":"min_altitude","systemDomainName":"local-system","display":"Min altitude"}]},"fullUrl":"urn:uuid:07e4bf67-577d-457a-8409-b9962085aacc","valueQuantity":{"unit":"m","system":"http://unitsofmeasure.org","code":"m","value":6432}},{"resourceId":"665473892564789000228-altitude","code":{"coding":[{"system":"http://local-system","code":"max_altitude","systemDomainName":"local-system","display":"Max Altitude"}]},"fullUrl":"urn:uuid:03432d6f-54dc-4120-b071-9b39b45772a0","valueQuantity":{"unit":"m","system":"http://unitsofmeasure.org","code":"m","value":6543}}],"code":{"coding":[{"system":"http://local-system","code":"altitude","systemDomainName":"local-system","display":"Altitude"}]},"effectivePeriod":{"start":"2021-06-18T18:27:55+03:00","end":"2021-06-18T18:39:07+03:00"},"subject":{"reference":"https://opensource.samsung.com/projects/helifit/patient/user12@puglia.gatekeeper.com","display":"60b36ccc05f8c40fc9428105"},"derivedFrom":[{"reference":"https://opensource.samsung.com/projects/helifit/observation/665473892564789000228","display":"665473892564789000228"}],"id":"665473892564789000228-altitude","device":{"identifier":{"system":"https://opensource.samsung.com/projects/helifit/device","value":"XaIq54it7a"}},"resourceType":"Observation","status":"final"},"fullUrl":"https://opensource.samsung.com/projects/helifit/observation/665473892564789000228-altitude"},{"request":{"method":"POST","url":"Observation"},"resource":{"identifier":[{"system":"https://opensource.samsung.com/projects/helifit/identifier","value":"665473892564789000228-duration"}],"code":{"coding":[{"system":"http://local-system","code":"duration","systemDomainName":"local-system","display":"Duration"}]},"effectivePeriod":{"start":"2021-06-18T18:27:55+03:00","end":"2021-06-18T18:39:07+03:00"},"subject":{"reference":"https://opensource.samsung.com/projects/helifit/patient/user12@puglia.gatekeeper.com","display":"60b36ccc05f8c40fc9428105"},"derivedFrom":[{"reference":"https://opensource.samsung.com/projects/helifit/observation/665473892564789000228","display":"665473892564789000228"}],"id":"665473892564789000228-duration","device":{"identifier":{"system":"https://opensource.samsung.com/projects/helifit/device","value":"XaIq54it7a"}},"resourceType":"Observation","status":"final","valueQuantity":{"unit":"s","system":"http://unitsofmeasure.org","code":"s","value":671880}},"fullUrl":"https://opensource.samsung.com/projects/helifit/observation/665473892564789000228-duration"},{"request":{"method":"POST","url":"Observation"},"resource":{"identifier":[{"system":"https://opensource.samsung.com/projects/helifit/identifier","value":"665473892564789000228-heart-rate"}],"component":[{"resourceId":"665473892564789000228-heart-rate","code":{"coding":[{"system":"http://local-system","code":"min_heart_rate","systemDomainName":"local-system","display":"Heart Rate Min"}]},"fullUrl":"urn:uuid:25b16a34-a4a2-4cf5-b71f-0d3155f6e627","valueQuantity":{"unit":"beats/min","system":"http://unitsofmeasure.org","code":"{Beats}/min","value":4332}},{"resourceId":"665473892564789000228-heart-rate","code":{"coding":[{"system":"http://local-system","code":"mean_heart_rate","systemDomainName":"local-system","display":"Heart Rate Mean"}]},"fullUrl":"urn:uuid:5396aea6-5b9a-4644-90fd-0e710b2ed52f","valueQuantity":{"unit":"beats/min","system":"http://unitsofmeasure.org","code":"{Beats}/min","value":53432}},{"resourceId":"665473892564789000228-heart-rate","code":{"coding":[{"system":"http://local-system","code":"max_heart_rate","systemDomainName":"local-system","display":"Heart Rate Max"}]},"fullUrl":"urn:uuid:b5ab7b32-c315-40e8-ab5d-f6efbd49c5fb","valueQuantity":{"unit":"beats/min","system":"http://unitsofmeasure.org","code":"{Beats}/min","value":544234}}],"code":{"coding":[{"system":"http://local-system","code":"heart_rate","systemDomainName":"local-system","display":"Heart Rate"}]},"effectivePeriod":{"start":"2021-06-18T18:27:55+03:00","end":"2021-06-18T18:39:07+03:00"},"subject":{"reference":"https://opensource.samsung.com/projects/helifit/patient/user12@puglia.gatekeeper.com","display":"60b36ccc05f8c40fc9428105"},"derivedFrom":[{"reference":"https://opensource.samsung.com/projects/helifit/observation/665473892564789000228","display":"665473892564789000228"}],"id":"665473892564789000228-heart-rate","device":{"identifier":{"system":"https://opensource.samsung.com/projects/helifit/device","value":"XaIq54it7a"}},"resourceType":"Observation","status":"final"},"fullUrl":"https://opensource.samsung.com/projects/helifit/observation/665473892564789000228-heart-rate"},{"request":{"method":"POST","url":"Observation"},"resource":{"identifier":[{"system":"https://opensource.samsung.com/projects/helifit/identifier","value":"665473892564789000228-heart-rate-0"}],"code":{"coding":[{"system":"http://samsung/live-data","code":"live_data_heart_rate","systemDomainName":"samsung","display":"Live data heart rate"}]},"effectivePeriod":{"start":"2015-01-28T16:58:16+02:00","end":"2021-06-18T09:47:59+03:00"},"subject":{"reference":"https://opensource.samsung.com/projects/helifit/patient/user12@puglia.gatekeeper.com","display":"60b36ccc05f8c40fc9428105"},"derivedFrom":[{"reference":"https://opensource.samsung.com/projects/helifit/observation/665473892564789000228-heart-rate","display":"665473892564789000228-heart-rate"}],"id":"665473892564789000228-heart-rate-0","device":{"identifier":{"system":"https://opensource.samsung.com/projects/helifit/device","value":"XaIq54it7a"}},"resourceType":"Observation","status":"final","valueQuantity":{"unit":"beats/min","system":"http://unitsofmeasure.org","code":"{Beats}/min","value":147.48181}},"fullUrl":"https://opensource.samsung.com/projects/helifit/observation/665473892564789000228-heart-rate-0"},{"request":{"method":"POST","url":"Observation"},"resource":{"identifier":[{"system":"https://opensource.samsung.com/projects/helifit/identifier","value":"665473892564789000228-heart-rate-1"}],"code":{"coding":[{"system":"http://samsung/live-data","code":"live_data_heart_rate","systemDomainName":"samsung","display":"Live data heart rate"}]},"effectivePeriod":{"start":"2021-06-18T10:03:00+03:00","end":"2021-06-18T10:03:59+03:00"},"subject":{"reference":"https://opensource.samsung.com/projects/helifit/patient/user12@puglia.gatekeeper.com","display":"60b36ccc05f8c40fc9428105"},"derivedFrom":[{"reference":"https://opensource.samsung.com/projects/helifit/observation/665473892564789000228-heart-rate","display":"665473892564789000228-heart-rate"}],"id":"665473892564789000228-heart-rate-1","device":{"identifier":{"system":"https://opensource.samsung.com/projects/helifit/device","value":"XaIq54it7a"}},"resourceType":"Observation","status":"final","valueQuantity":{"unit":"beats/min","system":"http://unitsofmeasure.org","code":"{Beats}/min","value":147.48181}},"fullUrl":"https://opensource.samsung.com/projects/helifit/observation/665473892564789000228-heart-rate-1"},{"request":{"method":"POST","url":"Observation"},"resource":{"identifier":[{"system":"https://opensource.samsung.com/projects/helifit/identifier","value":"665473892564789000228-rpm"}],"component":[{"resourceId":"665473892564789000228-rpm","code":{"coding":[{"system":"http://local-system","code":"mean_rpm","systemDomainName":"local-system","display":"Mean rpm"}]},"fullUrl":"urn:uuid:189dfa58-85fe-46b8-9b10-1893039e0630","valueQuantity":{"unit":"Hz","system":"http://unitsofmeasure.org","code":"hZ","value":87654}},{"resourceId":"665473892564789000228-rpm","code":{"coding":[{"system":"http://local-system","code":"max_rpm","systemDomainName":"local-system","display":"Max rpm"}]},"fullUrl":"urn:uuid:3dd492d6-b2a2-40d5-bc63-52252e03d1f3","valueQuantity":{"unit":"Hz","system":"http://unitsofmeasure.org","code":"hZ","value":98765}}],"code":{"coding":[{"system":"http://local-system","code":"rpm","systemDomainName":"local-system","display":"rpm"}]},"effectivePeriod":{"start":"2021-06-18T18:27:55+03:00","end":"2021-06-18T18:39:07+03:00"},"subject":{"reference":"https://opensource.samsung.com/projects/helifit/patient/user12@puglia.gatekeeper.com","display":"60b36ccc05f8c40fc9428105"},"derivedFrom":[{"reference":"https://opensource.samsung.com/projects/helifit/observation/665473892564789000228","display":"665473892564789000228"}],"id":"665473892564789000228-rpm","device":{"identifier":{"system":"https://opensource.samsung.com/projects/helifit/device","value":"XaIq54it7a"}},"resourceType":"Observation","status":"final"},"fullUrl":"https://opensource.samsung.com/projects/helifit/observation/665473892564789000228-rpm"},{"request":{"method":"POST","url":"Observation"},"resource":{"identifier":[{"system":"https://opensource.samsung.com/projects/helifit/identifier","value":"665473892564789000228-vo2-max"}],"code":{"coding":[{"system":"http://local-system","code":"vo2_max","systemDomainName":"local-system","display":"Vo2_max"}]},"effectivePeriod":{"start":"2021-06-18T18:27:55+03:00","end":"2021-06-18T18:39:07+03:00"},"subject":{"reference":"https://opensource.samsung.com/projects/helifit/patient/user12@puglia.gatekeeper.com","display":"60b36ccc05f8c40fc9428105"},"derivedFrom":[{"reference":"https://opensource.samsung.com/projects/helifit/observation/665473892564789000228","display":"665473892564789000228"}],"id":"665473892564789000228-vo2-max","device":{"identifier":{"system":"https://opensource.samsung.com/projects/helifit/device","value":"XaIq54it7a"}},"resourceType":"Observation","status":"final","valueQuantity":{"unit":"mL/kg/min","system":"http://unitsofmeasure.org","code":"mL/kg/min","value":654}},"fullUrl":"https://opensource.samsung.com/projects/helifit/observation/665473892564789000228-vo2-max"}],"type":"transaction","resourceType":"Bundle"}