{"entry":[{"request":{"method":"POST","url":"Patient"},"resource":{"identifier":[{"system":"https://opensource.samsung.com/projects/helifit/identifier","systemDomainName":"opensource_samsung_com","value":"user12@puglia.gatekeeper.com"},{"system":"https://opensource.samsung.com/projects/helifit/identifier","systemDomainName":"opensource_samsung_com","value":"60b36ccc05f8c40fc9428105"}],"id":"60b36ccc05f8c40fc9428105","resourceType":"Patient"},"fullUrl":"https://opensource.samsung.com/projects/helifit/patient/user12@puglia.gatekeeper.com"},{"request":{"method":"POST","url":"Observation"},"resource":{"identifier":[{"system":"https://opensource.samsung.com/projects/helifit/identifier","value":"Observation/fuisgjsdgcsdkugfsk"}],"code":{"coding":[{"system":"http://local-system","code":"cycling","systemDomainName":"local-system","display":"Cycling"}]},"effectivePeriod":{"start":"2021-06-18T07:47:38+03:00","end":"2021-06-18T08:03:09+03:00"},"subject":{"reference":"https://opensource.samsung.com/projects/helifit/patient/user12@puglia.gatekeeper.com","display":"60b36ccc05f8c40fc9428105"},"id":"fuisgjsdgcsdkugfsk","device":{"identifier":{"system":"https://opensource.samsung.com/projects/helifit/device","value":"XaIq54it7a"}},"resourceType":"Observation","status":"final"},"fullUrl":"https://opensource.samsung.com/projects/helifit/observation/fuisgjsdgcsdkugfsk"},{"request":{"method":"POST","url":"Observation"},"resource":{"identifier":[{"system":"https://opensource.samsung.com/projects/helifit/identifier","value":"fuisgjsdgcsdkugfsk-calorie"}],"component":[{"resourceId":"fuisgjsdgcsdkugfsk-calorie","code":{"coding":[{"system":"http://local-system","code":"calorie","systemDomainName":"local-system","display":"Calorie"}]},"fullUrl":"urn:uuid:18e81b2e-d997-4b90-a214-52d1e19858b4","valueQuantity":{"unit":"kcal/s","system":"http://unitsofmeasure.org","code":"kcal/s","value":71}},{"resourceId":"fuisgjsdgcsdkugfsk-calorie","code":{"coding":[{"system":"http://local-system","code":"mean_caloricburn_rate","systemDomainName":"local-system","display":"Mean caloric burn rate"}]},"fullUrl":"urn:uuid:c1cef048-60b0-409d-931a-af7cf274ee05","valueQuantity":{"unit":"kcal/s","system":"http://unitsofmeasure.org","code":"kcal/s","value":98234}},{"resourceId":"fuisgjsdgcsdkugfsk-calorie","code":{"coding":[{"system":"http://local-system","code":"max_caloricburn_rate","systemDomainName":"local-system","display":"Max caloric burn rate"}]},"fullUrl":"urn:uuid:c146ca6d-009c-4c88-a9cb-2d6d60207314","valueQuantity":{"unit":"kcal/s","system":"http://unitsofmeasure.org","code":"kcal/s","value":98234}}],"code":{"coding":[{"system":"http://local-system","code":"calorie","systemDomainName":"local-system","display":"Calorie"}]},"effectivePeriod":{"start":"2021-06-18T07:47:38+03:00","end":"2021-06-18T08:03:09+03:00"},"subject":{"reference":"https://opensource.samsung.com/projects/helifit/patient/user12@puglia.gatekeeper.com","display":"60b36ccc05f8c40fc9428105"},"derivedFrom":[{"reference":"https://opensource.samsung.com/projects/helifit/observation/fuisgjsdgcsdkugfsk","display":"fuisgjsdgcsdkugfsk"}],"id":"fuisgjsdgcsdkugfsk-calorie","device":{"identifier":{"system":"https://opensource.samsung.com/projects/helifit/device","value":"XaIq54it7a"}},"resourceType":"Observation","status":"final"},"fullUrl":"https://opensource.samsung.com/projects/helifit/observation/fuisgjsdgcsdkugfsk-calorie"},{"request":{"method":"POST","url":"Observation"},"resource":{"identifier":[{"system":"https://opensource.samsung.com/projects/helifit/identifier","value":"fuisgjsdgcsdkugfsk-count"}],"component":[{"resourceId":"fuisgjsdgcsdkugfsk-count","code":{"coding":[{"system":"http://local-system","code":"count","systemDomainName":"local-system","display":"Count"}]},"fullUrl":"urn:uuid:86b94529-b088-4fac-9032-3e2b7f73cc7a","valueQuantity":{"unit":"...","system":"http://unitsofmeasure.org","code":"...","value":985789}},{"resourceId":"fuisgjsdgcsdkugfsk-count","code":{"coding":[{"system":"http://local-system","code":"count_type","systemDomainName":"local-system","display":"Count type"}]},"fullUrl":"urn:uuid:7bdd3196-36e9-4778-8855-c082184316a5","valueQuantity":{"value":30001}}],"code":{"coding":[{"system":"http://local-system","code":"count","systemDomainName":"local-system","display":"Count"}]},"effectivePeriod":{"start":"2021-06-18T07:47:38+03:00","end":"2021-06-18T08:03:09+03:00"},"subject":{"reference":"https://opensource.samsung.com/projects/helifit/patient/user12@puglia.gatekeeper.com","display":"60b36ccc05f8c40fc9428105"},"derivedFrom":[{"reference":"https://opensource.samsung.com/projects/helifit/observation/fuisgjsdgcsdkugfsk","display":"fuisgjsdgcsdkugfsk"}],"id":"fuisgjsdgcsdkugfsk-count","device":{"identifier":{"system":"https://opensource.samsung.com/projects/helifit/device","value":"XaIq54it7a"}},"resourceType":"Observation","status":"final"},"fullUrl":"https://opensource.samsung.com/projects/helifit/observation/fuisgjsdgcsdkugfsk-count"},{"request":{"method":"POST","url":"Observation"},"resource":{"identifier":[{"system":"https://opensource.samsung.com/projects/helifit/identifier","value":"fuisgjsdgcsdkugfsk-count-0"}],"code":{"coding":[{"system":"http://samsung/live-data","code":"live_data_count","systemDomainName":"samsung","display":"Live data count"}]},"effectivePeriod":{"start":"2015-01-28T16:58:16+02:00","end":"2021-06-18T09:47:59+03:00"},"subject":{"reference":"https://opensource.samsung.com/projects/helifit/patient/user12@puglia.gatekeeper.com","display":"60b36ccc05f8c40fc9428105"},"derivedFrom":[{"reference":"https://opensource.samsung.com/projects/helifit/observation/fuisgjsdgcsdkugfsk-count","display":"fuisgjsdgcsdkugfsk-count"}],"id":"fuisgjsdgcsdkugfsk-count-0","device":{"identifier":{"system":"https://opensource.samsung.com/projects/helifit/device","value":"XaIq54it7a"}},"resourceType":"Observation","status":"final","valueQuantity":{"unit":"...","system":"http://unitsofmeasure.org","code":"...","value":83}},"fullUrl":"https://opensource.samsung.com/projects/helifit/observation/fuisgjsdgcsdkugfsk-count-0"},{"request":{"method":"POST","url":"Observation"},"resource":{"identifier":[{"system":"https://opensource.samsung.com/projects/helifit/identifier","value":"fuisgjsdgcsdkugfsk-count-1"}],"code":{"coding":[{"system":"http://samsung/live-data","code":"live_data_count","systemDomainName":"samsung","display":"Live data count"}]},"effectivePeriod":{"start":"2021-06-18T10:03:00+03:00","end":"2021-06-18T10:03:59+03:00"},"subject":{"reference":"https://opensource.samsung.com/projects/helifit/patient/user12@puglia.gatekeeper.com","display":"60b36ccc05f8c40fc9428105"},"derivedFrom":[{"reference":"https://opensource.samsung.com/projects/helifit/observation/fuisgjsdgcsdkugfsk-count","display":"fuisgjsdgcsdkugfsk-count"}],"id":"fuisgjsdgcsdkugfsk-count-1","device":{"identifier":{"system":"https://opensource.samsung.com/projects/helifit/device","value":"XaIq54it7a"}},"resourceType":"Observation","status":"final","valueQuantity":{"unit":"...","system":"http://unitsofmeasure.org","code":"...","value":85}},"fullUrl":"https://opensource.samsung.com/projects/helifit/observation/fuisgjsdgcsdkugfsk-count-1"},{"request":{"method":"POST","url":"Observation"},"resource":{"identifier":[{"system":"https://opensource.samsung.com/projects/helifit/identifier","value":"fuisgjsdgcsdkugfsk-distance"}],"component":[{"resourceId":"fuisgjsdgcsdkugfsk-distance","code":{"coding":[{"system":"http://local-system","code":"distance","systemDomainName":"local-system","display":"Distance"}]},"fullUrl":"urn:uuid:3ae61d6a-3475-468b-9348-476162ff7e1b","valueQuantity":{"unit":"m","system":"http://unitsofmeasure.org","code":"m","value":250}},{"resourceId":"fuisgjsdgcsdkugfsk-distance","code":{"coding":[{"system":"http://local-system","code":"incline_distance","systemDomainName":"local-system","display":"Incline distance"}]},"fullUrl":"urn:uuid:6af714c9-9534-4b27-a727-90ab5d6c1d9f","valueQuantity":{"unit":"m","system":"http://unitsofmeasure.org","code":"m","value":8924378}},{"resourceId":"fuisgjsdgcsdkugfsk-distance","code":{"coding":[{"system":"http://local-system","code":"decline_distance","systemDomainName":"local-system","display":"Decline distance"}]},"fullUrl":"urn:uuid:1465e218-f216-49ec-a6df-42cbccfc00e4","valueQuantity":{"unit":"m","system":"http://unitsofmeasure.org","code":"m","value":8936785}}],"code":{"coding":[{"system":"http://local-system","code":"distance","systemDomainName":"local-system","display":"Distance"}]},"effectivePeriod":{"start":"2021-06-18T07:47:38+03:00","end":"2021-06-18T08:03:09+03:00"},"subject":{"reference":"https://opensource.samsung.com/projects/helifit/patient/user12@puglia.gatekeeper.com","display":"60b36ccc05f8c40fc9428105"},"derivedFrom":[{"reference":"https://opensource.samsung.com/projects/helifit/observation/fuisgjsdgcsdkugfsk","display":"fuisgjsdgcsdkugfsk"}],"id":"fuisgjsdgcsdkugfsk-distance","device":{"identifier":{"system":"https://opensource.samsung.com/projects/helifit/device","value":"XaIq54it7a"}},"resourceType":"Observation","status":"final"},"fullUrl":"https://opensource.samsung.com/projects/helifit/observation/fuisgjsdgcsdkugfsk-distance"},{"request":{"method":"POST","url":"Observation"},"resource":{"identifier":[{"system":"https://opensource.samsung.com/projects/helifit/identifier","value":"fuisgjsdgcsdkugfsk-distance-0"}],"code":{"coding":[{"system":"http://samsung/live-data","code":"live_data_distance","systemDomainName":"samsung","display":"Live data distance"}]},"effectivePeriod":{"start":"2015-01-28T16:58:16+02:00","end":"2021-06-18T09:47:59+03:00"},"subject":{"reference":"https://opensource.samsung.com/projects/helifit/patient/user12@puglia.gatekeeper.com","display":"60b36ccc05f8c40fc9428105"},"derivedFrom":[{"reference":"https://opensource.samsung.com/projects/helifit/observation/fuisgjsdgcsdkugfsk-distance","display":"fuisgjsdgcsdkugfsk-distance"}],"id":"fuisgjsdgcsdkugfsk-distance-0","device":{"identifier":{"system":"https://opensource.samsung.com/projects/helifit/device","value":"XaIq54it7a"}},"resourceType":"Observation","status":"final","valueQuantity":{"unit":"m","system":"http://unitsofmeasure.org","code":"m","value":250}},"fullUrl":"https://opensource.samsung.com/projects/helifit/observation/fuisgjsdgcsdkugfsk-distance-0"},{"request":{"method":"POST","url":"Observation"},"resource":{"identifier":[{"system":"https://opensource.samsung.com/projects/helifit/identifier","value":"fuisgjsdgcsdkugfsk-distance-1"}],"code":{"coding":[{"system":"http://samsung/live-data","code":"live_data_distance","systemDomainName":"samsung","display":"Live data distance"}]},"effectivePeriod":{"start":"2021-06-18T10:03:00+03:00","end":"2021-06-18T10:03:59+03:00"},"subject":{"reference":"https://opensource.samsung.com/projects/helifit/patient/user12@puglia.gatekeeper.com","display":"60b36ccc05f8c40fc9428105"},"derivedFrom":[{"reference":"https://opensource.samsung.com/projects/helifit/observation/fuisgjsdgcsdkugfsk-distance","display":"fuisgjsdgcsdkugfsk-distance"}],"id":"fuisgjsdgcsdkugfsk-distance-1","device":{"identifier":{"system":"https://opensource.samsung.com/projects/helifit/device","value":"XaIq54it7a"}},"resourceType":"Observation","status":"final","valueQuantity":{"unit":"m","system":"http://unitsofmeasure.org","code":"m","value":250}},"fullUrl":"https://opensource.samsung.com/projects/helifit/observation/fuisgjsdgcsdkugfsk-distance-1"},{"request":{"method":"POST","url":"Observation"},"resource":{"identifier":[{"system":"https://opensource.samsung.com/projects/helifit/identifier","value":"fuisgjsdgcsdkugfsk-speed"}],"component":[{"resourceId":"fuisgjsdgcsdkugfsk-speed","code":{"coding":[{"system":"http://local-system","code":"mean_speed","systemDomainName":"local-system","display":"Mean speed"}]},"fullUrl":"urn:uuid:c4a918b9-a828-4a15-a25d-429e95a43791","valueQuantity":{"unit":"m/s","system":"http://unitsofmeasure.org","code":"m/s","value":76887}},{"resourceId":"fuisgjsdgcsdkugfsk-speed","code":{"coding":[{"system":"http://local-system","code":"max_speed","systemDomainName":"local-system","display":"Max speed"}]},"fullUrl":"urn:uuid:0c804da1-c101-48d6-b333-42d653ffbc3d","valueQuantity":{"unit":"m/s","system":"http://unitsofmeasure.org","code":"m/s","value":983478}}],"code":{"coding":[{"system":"http://local-system","code":"speed","systemDomainName":"local-system","display":"Speed"}]},"effectivePeriod":{"start":"2021-06-18T07:47:38+03:00","end":"2021-06-18T08:03:09+03:00"},"subject":{"reference":"https://opensource.samsung.com/projects/helifit/patient/user12@puglia.gatekeeper.com","display":"60b36ccc05f8c40fc9428105"},"derivedFrom":[{"reference":"https://opensource.samsung.com/projects/helifit/observation/fuisgjsdgcsdkugfsk","display":"fuisgjsdgcsdkugfsk"}],"id":"fuisgjsdgcsdkugfsk-speed","device":{"identifier":{"system":"https://opensource.samsung.com/projects/helifit/device","value":"XaIq54it7a"}},"resourceType":"Observation","status":"final"},"fullUrl":"https://opensource.samsung.com/projects/helifit/observation/fuisgjsdgcsdkugfsk-speed"},{"request":{"method":"POST","url":"Observation"},"resource":{"identifier":[{"system":"https://opensource.samsung.com/projects/helifit/identifier","value":"fuisgjsdgcsdkugfsk-speed-0"}],"code":{"coding":[{"system":"http://samsung/live-data","code":"live_data_speed","systemDomainName":"samsung","display":"Live data speed"}]},"effectivePeriod":{"start":"2015-01-28T16:58:16+02:00","end":"2021-06-18T09:47:59+03:00"},"subject":{"reference":"https://opensource.samsung.com/projects/helifit/patient/user12@puglia.gatekeeper.com","display":"60b36ccc05f8c40fc9428105"},"derivedFrom":[{"reference":"https://opensource.samsung.com/projects/helifit/observation/fuisgjsdgcsdkugfsk-speed","display":"fuisgjsdgcsdkugfsk-speed"}],"id":"fuisgjsdgcsdkugfsk-speed-0","device":{"identifier":{"system":"https://opensource.samsung.com/projects/helifit/device","value":"XaIq54it7a"}},"resourceType":"Observation","status":"final","valueQuantity":{"unit":"m/s","system":"http://unitsofmeasure.org","code":"m/s","value":11.061617}},"fullUrl":"https://opensource.samsung.com/projects/helifit/observation/fuisgjsdgcsdkugfsk-speed-0"},{"request":{"method":"POST","url":"Observation"},"resource":{"identifier":[{"system":"https://opensource.samsung.com/projects/helifit/identifier","value":"fuisgjsdgcsdkugfsk-speed-1"}],"code":{"coding":[{"system":"http://samsung/live-data","code":"live_data_speed","systemDomainName":"samsung","display":"Live data speed"}]},"effectivePeriod":{"start":"2021-06-18T10:03:00+03:00","end":"2021-06-18T10:03:59+03:00"},"subject":{"reference":"https://opensource.samsung.com/projects/helifit/patient/user12@puglia.gatekeeper.com","display":"60b36ccc05f8c40fc9428105"},"derivedFrom":[{"reference":"https://opensource.samsung.com/projects/helifit/observation/fuisgjsdgcsdkugfsk-speed","display":"fuisgjsdgcsdkugfsk-speed"}],"id":"fuisgjsdgcsdkugfsk-speed-1","device":{"identifier":{"system":"https://opensource.samsung.com/projects/helifit/device","value":"XaIq54it7a"}},"resourceType":"Observation","status":"final","valueQuantity":{"unit":"m/s","system":"http://unitsofmeasure.org","code":"m/s","value":11.061617}},"fullUrl":"https://opensource.samsung.com/projects/helifit/observation/fuisgjsdgcsdkugfsk-speed-1"},{"request":{"method":"POST","url":"Observation"},"resource":{"identifier":[{"system":"https://opensource.samsung.com/projects/helifit/identifier","value":"fuisgjsdgcsdkugfsk-cadence"}],"component":[{"resourceId":"fuisgjsdgcsdkugfsk-cadence","code":{"coding":[{"system":"http://local-system","code":"mean_cadence","systemDomainName":"local-system","display":"Mean Cadence"}]},"fullUrl":"urn:uuid:7abe3015-649d-4688-9350-a188d8df5f7b","valueQuantity":{"unit":"m/s","system":"http://unitsofmeasure.org","code":"m/s","value":65432}},{"resourceId":"fuisgjsdgcsdkugfsk-cadence","code":{"coding":[{"system":"http://local-system","code":"max_cadence","systemDomainName":"local-system","display":"Max Cadence"}]},"fullUrl":"urn:uuid:72978ac6-f8b3-41f3-9ab6-fb597d04e15c","valueQuantity":{"unit":"m/s","system":"http://unitsofmeasure.org","code":"m/s","value":89723}}],"code":{"coding":[{"system":"http://local-system","code":"cadence","systemDomainName":"local-system","display":"Cadence"}]},"effectivePeriod":{"start":"2021-06-18T07:47:38+03:00","end":"2021-06-18T08:03:09+03:00"},"subject":{"reference":"https://opensource.samsung.com/projects/helifit/patient/user12@puglia.gatekeeper.com","display":"60b36ccc05f8c40fc9428105"},"derivedFrom":[{"reference":"https://opensource.samsung.com/projects/helifit/observation/fuisgjsdgcsdkugfsk","display":"fuisgjsdgcsdkugfsk"}],"id":"fuisgjsdgcsdkugfsk-cadence","device":{"identifier":{"system":"https://opensource.samsung.com/projects/helifit/device","value":"XaIq54it7a"}},"resourceType":"Observation","status":"final"},"fullUrl":"https://opensource.samsung.com/projects/helifit/observation/fuisgjsdgcsdkugfsk-cadence"},{"request":{"method":"POST","url":"Observation"},"resource":{"identifier":[{"system":"https://opensource.samsung.com/projects/helifit/identifier","value":"fuisgjsdgcsdkugfsk-cadence-0"}],"code":{"coding":[{"system":"http://samsung/live-data","code":"live_data_cadence","systemDomainName":"samsung","display":"Live data cadence"}]},"effectivePeriod":{"start":"2015-01-28T16:58:16+02:00","end":"2021-06-18T09:47:59+03:00"},"subject":{"reference":"https://opensource.samsung.com/projects/helifit/patient/user12@puglia.gatekeeper.com","display":"60b36ccc05f8c40fc9428105"},"derivedFrom":[{"reference":"https://opensource.samsung.com/projects/helifit/observation/fuisgjsdgcsdkugfsk-cadence","display":"fuisgjsdgcsdkugfsk-cadence"}],"id":"fuisgjsdgcsdkugfsk-cadence-0","device":{"identifier":{"system":"https://opensource.samsung.com/projects/helifit/device","value":"XaIq54it7a"}},"resourceType":"Observation","status":"final","valueQuantity":{"unit":"m/s","system":"http://unitsofmeasure.org","code":"m/s","value":94}},"fullUrl":"https://opensource.samsung.com/projects/helifit/observation/fuisgjsdgcsdkugfsk-cadence-0"},{"request":{"method":"POST","url":"Observation"},"resource":{"identifier":[{"system":"https://opensource.samsung.com/projects/helifit/identifier","value":"fuisgjsdgcsdkugfsk-cadence-1"}],"code":{"coding":[{"system":"http://samsung/live-data","code":"live_data_cadence","systemDomainName":"samsung","display":"Live data cadence"}]},"effectivePeriod":{"start":"2021-06-18T10:03:00+03:00","end":"2021-06-18T10:03:59+03:00"},"subject":{"reference":"https://opensource.samsung.com/projects/helifit/patient/user12@puglia.gatekeeper.com","display":"60b36ccc05f8c40fc9428105"},"derivedFrom":[{"reference":"https://opensource.samsung.com/projects/helifit/observation/fuisgjsdgcsdkugfsk-cadence","display":"fuisgjsdgcsdkugfsk-cadence"}],"id":"fuisgjsdgcsdkugfsk-cadence-1","device":{"identifier":{"system":"https://opensource.samsung.com/projects/helifit/device","value":"XaIq54it7a"}},"resourceType":"Observation","status":"final","valueQuantity":{"unit":"m/s","system":"http://unitsofmeasure.org","code":"m/s","value":95.00001}},"fullUrl":"https://opensource.samsung.com/projects/helifit/observation/fuisgjsdgcsdkugfsk-cadence-1"},{"request":{"method":"POST","url":"Observation"},"resource":{"identifier":[{"system":"https://opensource.samsung.com/projects/helifit/identifier","value":"fuisgjsdgcsdkugfsk-power"}],"component":[{"resourceId":"fuisgjsdgcsdkugfsk-power","code":{"coding":[{"system":"http://local-system","code":"mean_power","systemDomainName":"local-system","display":"Mean Power"}]},"fullUrl":"urn:uuid:c6944da4-fed3-4946-ab7f-604e39646550","valueQuantity":{"unit":"watt","system":"http://unitsofmeasure.org","code":"W","value":7654}},{"resourceId":"fuisgjsdgcsdkugfsk-power","code":{"coding":[{"system":"http://local-system","code":"max_power","systemDomainName":"local-system","display":"Max Power"}]},"fullUrl":"urn:uuid:e8d04b83-572a-46a8-9c97-8b0c3da5886c","valueQuantity":{"unit":"watt","system":"http://unitsofmeasure.org","code":"W","value":87654}}],"code":{"coding":[{"system":"http://local-system","code":"power","systemDomainName":"local-system","display":"Power"}]},"effectivePeriod":{"start":"2021-06-18T07:47:38+03:00","end":"2021-06-18T08:03:09+03:00"},"subject":{"reference":"https://opensource.samsung.com/projects/helifit/patient/user12@puglia.gatekeeper.com","display":"60b36ccc05f8c40fc9428105"},"derivedFrom":[{"reference":"https://opensource.samsung.com/projects/helifit/observation/fuisgjsdgcsdkugfsk","display":"fuisgjsdgcsdkugfsk"}],"id":"fuisgjsdgcsdkugfsk-power","device":{"identifier":{"system":"https://opensource.samsung.com/projects/helifit/device","value":"XaIq54it7a"}},"resourceType":"Observation","status":"final"},"fullUrl":"https://opensource.samsung.com/projects/helifit/observation/fuisgjsdgcsdkugfsk-power"},{"request":{"method":"POST","url":"Observation"},"resource":{"identifier":[{"system":"https://opensource.samsung.com/projects/helifit/identifier","value":"fuisgjsdgcsdkugfsk-power-0"}],"code":{"coding":[{"system":"http://samsung/live-data","code":"live_data_power","systemDomainName":"samsung","display":"Live data power"}]},"effectivePeriod":{"start":"2015-01-28T16:58:16+02:00","end":"2021-06-18T09:47:59+03:00"},"subject":{"reference":"https://opensource.samsung.com/projects/helifit/patient/user12@puglia.gatekeeper.com","display":"60b36ccc05f8c40fc9428105"},"derivedFrom":[{"reference":"https://opensource.samsung.com/projects/helifit/observation/fuisgjsdgcsdkugfsk-power","display":"fuisgjsdgcsdkugfsk-power"}],"id":"fuisgjsdgcsdkugfsk-power-0","device":{"identifier":{"system":"https://opensource.samsung.com/projects/helifit/device","value":"XaIq54it7a"}},"resourceType":"Observation","status":"final","valueQuantity":{"unit":"watt","system":"http://unitsofmeasure.org","code":"W","value":99.50436}},"fullUrl":"https://opensource.samsung.com/projects/helifit/observation/fuisgjsdgcsdkugfsk-power-0"},{"request":{"method":"POST","url":"Observation"},"resource":{"identifier":[{"system":"https://opensource.samsung.com/projects/helifit/identifier","value":"fuisgjsdgcsdkugfsk-power-1"}],"code":{"coding":[{"system":"http://samsung/live-data","code":"live_data_power","systemDomainName":"samsung","display":"Live data power"}]},"effectivePeriod":{"start":"2021-06-18T10:03:00+03:00","end":"2021-06-18T10:03:59+03:00"},"subject":{"reference":"https://opensource.samsung.com/projects/helifit/patient/user12@puglia.gatekeeper.com","display":"60b36ccc05f8c40fc9428105"},"derivedFrom":[{"reference":"https://opensource.samsung.com/projects/helifit/observation/fuisgjsdgcsdkugfsk-power","display":"fuisgjsdgcsdkugfsk-power"}],"id":"fuisgjsdgcsdkugfsk-power-1","device":{"identifier":{"system":"https://opensource.samsung.com/projects/helifit/device","value":"XaIq54it7a"}},"resourceType":"Observation","status":"final","valueQuantity":{"unit":"watt","system":"http://unitsofmeasure.org","code":"W","value":99.50436}},"fullUrl":"https://opensource.samsung.com/projects/helifit/observation/fuisgjsdgcsdkugfsk-power-1"},{"request":{"method":"POST","url":"Observation"},"resource":{"identifier":[{"system":"https://opensource.samsung.com/projects/helifit/identifier","value":"fuisgjsdgcsdkugfsk-altitude"}],"component":[{"resourceId":"fuisgjsdgcsdkugfsk-altitude","code":{"coding":[{"system":"http://local-system","code":"altitude_gain","systemDomainName":"local-system","display":"Altitude gain"}]},"fullUrl":"urn:uuid:c35afbb6-5384-42d3-9485-474aa65e4b0e","valueQuantity":{"unit":"m","system":"http://unitsofmeasure.org","code":"m","value":1234}},{"resourceId":"fuisgjsdgcsdkugfsk-altitude","code":{"coding":[{"system":"http://local-system","code":"altitude_loss","systemDomainName":"local-system","display":"Altitude loss"}]},"fullUrl":"urn:uuid:fe4571e3-5e21-4f7f-bf92-2c534d8af628","valueQuantity":{"unit":"m","system":"http://unitsofmeasure.org","code":"m","value":7345}},{"resourceId":"fuisgjsdgcsdkugfsk-altitude","code":{"coding":[{"system":"http://local-system","code":"min_altitude","systemDomainName":"local-system","display":"Min altitude"}]},"fullUrl":"urn:uuid:924e9641-da5e-4293-b34a-635d00d9ad87","valueQuantity":{"unit":"m","system":"http://unitsofmeasure.org","code":"m","value":6432}},{"resourceId":"fuisgjsdgcsdkugfsk-altitude","code":{"coding":[{"system":"http://local-system","code":"max_altitude","systemDomainName":"local-system","display":"Max Altitude"}]},"fullUrl":"urn:uuid:0e9f1573-389e-446b-a5c7-242a35fbab5b","valueQuantity":{"unit":"m","system":"http://unitsofmeasure.org","code":"m","value":6543}}],"code":{"coding":[{"system":"http://local-system","code":"altitude","systemDomainName":"local-system","display":"Altitude"}]},"effectivePeriod":{"start":"2021-06-18T07:47:38+03:00","end":"2021-06-18T08:03:09+03:00"},"subject":{"reference":"https://opensource.samsung.com/projects/helifit/patient/user12@puglia.gatekeeper.com","display":"60b36ccc05f8c40fc9428105"},"derivedFrom":[{"reference":"https://opensource.samsung.com/projects/helifit/observation/fuisgjsdgcsdkugfsk","display":"fuisgjsdgcsdkugfsk"}],"id":"fuisgjsdgcsdkugfsk-altitude","device":{"identifier":{"system":"https://opensource.samsung.com/projects/helifit/device","value":"XaIq54it7a"}},"resourceType":"Observation","status":"final"},"fullUrl":"https://opensource.samsung.com/projects/helifit/observation/fuisgjsdgcsdkugfsk-altitude"},{"request":{"method":"POST","url":"Observation"},"resource":{"identifier":[{"system":"https://opensource.samsung.com/projects/helifit/identifier","value":"fuisgjsdgcsdkugfsk-duration"}],"code":{"coding":[{"system":"http://local-system","code":"duration","systemDomainName":"local-system","display":"Duration"}]},"effectivePeriod":{"start":"2021-06-18T07:47:38+03:00","end":"2021-06-18T08:03:09+03:00"},"subject":{"reference":"https://opensource.samsung.com/projects/helifit/patient/user12@puglia.gatekeeper.com","display":"60b36ccc05f8c40fc9428105"},"derivedFrom":[{"reference":"https://opensource.samsung.com/projects/helifit/observation/fuisgjsdgcsdkugfsk","display":"fuisgjsdgcsdkugfsk"}],"id":"fuisgjsdgcsdkugfsk-duration","device":{"identifier":{"system":"https://opensource.samsung.com/projects/helifit/device","value":"XaIq54it7a"}},"resourceType":"Observation","status":"final","valueQuantity":{"unit":"s","system":"http://unitsofmeasure.org","code":"s","value":930720}},"fullUrl":"https://opensource.samsung.com/projects/helifit/observation/fuisgjsdgcsdkugfsk-duration"},{"request":{"method":"POST","url":"Observation"},"resource":{"identifier":[{"system":"https://opensource.samsung.com/projects/helifit/identifier","value":"fuisgjsdgcsdkugfsk-heart-rate"}],"component":[{"resourceId":"fuisgjsdgcsdkugfsk-heart-rate","code":{"coding":[{"system":"http://local-system","code":"min_heart_rate","systemDomainName":"local-system","display":"Heart Rate Min"}]},"fullUrl":"urn:uuid:12f73365-bd09-4faf-8756-c6023a4eaa1f","valueQuantity":{"unit":"beats/min","system":"http://unitsofmeasure.org","code":"{Beats}/min","value":4332}},{"resourceId":"fuisgjsdgcsdkugfsk-heart-rate","code":{"coding":[{"system":"http://local-system","code":"mean_heart_rate","systemDomainName":"local-system","display":"Heart Rate Mean"}]},"fullUrl":"urn:uuid:f9e7eb33-4849-4b33-8056-4c9c86936557","valueQuantity":{"unit":"beats/min","system":"http://unitsofmeasure.org","code":"{Beats}/min","value":53432}},{"resourceId":"fuisgjsdgcsdkugfsk-heart-rate","code":{"coding":[{"system":"http://local-system","code":"max_heart_rate","systemDomainName":"local-system","display":"Heart Rate Max"}]},"fullUrl":"urn:uuid:a504b0dc-e784-4ebe-afee-d8d98537969a","valueQuantity":{"unit":"beats/min","system":"http://unitsofmeasure.org","code":"{Beats}/min","value":544234}}],"code":{"coding":[{"system":"http://local-system","code":"heart_rate","systemDomainName":"local-system","display":"Heart Rate"}]},"effectivePeriod":{"start":"2021-06-18T07:47:38+03:00","end":"2021-06-18T08:03:09+03:00"},"subject":{"reference":"https://opensource.samsung.com/projects/helifit/patient/user12@puglia.gatekeeper.com","display":"60b36ccc05f8c40fc9428105"},"derivedFrom":[{"reference":"https://opensource.samsung.com/projects/helifit/observation/fuisgjsdgcsdkugfsk","display":"fuisgjsdgcsdkugfsk"}],"id":"fuisgjsdgcsdkugfsk-heart-rate","device":{"identifier":{"system":"https://opensource.samsung.com/projects/helifit/device","value":"XaIq54it7a"}},"resourceType":"Observation","status":"final"},"fullUrl":"https://opensource.samsung.com/projects/helifit/observation/fuisgjsdgcsdkugfsk-heart-rate"},{"request":{"method":"POST","url":"Observation"},"resource":{"identifier":[{"system":"https://opensource.samsung.com/projects/helifit/identifier","value":"fuisgjsdgcsdkugfsk-heart-rate-0"}],"code":{"coding":[{"system":"http://samsung/live-data","code":"live_data_heart_rate","systemDomainName":"samsung","display":"Live data heart rate"}]},"effectivePeriod":{"start":"2015-01-28T16:58:16+02:00","end":"2021-06-18T09:47:59+03:00"},"subject":{"reference":"https://opensource.samsung.com/projects/helifit/patient/user12@puglia.gatekeeper.com","display":"60b36ccc05f8c40fc9428105"},"derivedFrom":[{"reference":"https://opensource.samsung.com/projects/helifit/observation/fuisgjsdgcsdkugfsk-heart-rate","display":"fuisgjsdgcsdkugfsk-heart-rate"}],"id":"fuisgjsdgcsdkugfsk-heart-rate-0","device":{"identifier":{"system":"https://opensource.samsung.com/projects/helifit/device","value":"XaIq54it7a"}},"resourceType":"Observation","status":"final","valueQuantity":{"unit":"beats/min","system":"http://unitsofmeasure.org","code":"{Beats}/min","value":147.48181}},"fullUrl":"https://opensource.samsung.com/projects/helifit/observation/fuisgjsdgcsdkugfsk-heart-rate-0"},{"request":{"method":"POST","url":"Observation"},"resource":{"identifier":[{"system":"https://opensource.samsung.com/projects/helifit/identifier","value":"fuisgjsdgcsdkugfsk-heart-rate-1"}],"code":{"coding":[{"system":"http://samsung/live-data","code":"live_data_heart_rate","systemDomainName":"samsung","display":"Live data heart rate"}]},"effectivePeriod":{"start":"2021-06-18T10:03:00+03:00","end":"2021-06-18T10:03:59+03:00"},"subject":{"reference":"https://opensource.samsung.com/projects/helifit/patient/user12@puglia.gatekeeper.com","display":"60b36ccc05f8c40fc9428105"},"derivedFrom":[{"reference":"https://opensource.samsung.com/projects/helifit/observation/fuisgjsdgcsdkugfsk-heart-rate","display":"fuisgjsdgcsdkugfsk-heart-rate"}],"id":"fuisgjsdgcsdkugfsk-heart-rate-1","device":{"identifier":{"system":"https://opensource.samsung.com/projects/helifit/device","value":"XaIq54it7a"}},"resourceType":"Observation","status":"final","valueQuantity":{"unit":"beats/min","system":"http://unitsofmeasure.org","code":"{Beats}/min","value":147.48181}},"fullUrl":"https://opensource.samsung.com/projects/helifit/observation/fuisgjsdgcsdkugfsk-heart-rate-1"},{"request":{"method":"POST","url":"Observation"},"resource":{"identifier":[{"system":"https://opensource.samsung.com/projects/helifit/identifier","value":"fuisgjsdgcsdkugfsk-rpm"}],"component":[{"resourceId":"fuisgjsdgcsdkugfsk-rpm","code":{"coding":[{"system":"http://local-system","code":"mean_rpm","systemDomainName":"local-system","display":"Mean rpm"}]},"fullUrl":"urn:uuid:de5c6d16-6970-43eb-887e-2050956643d5","valueQuantity":{"unit":"Hz","system":"http://unitsofmeasure.org","code":"hZ","value":87654}},{"resourceId":"fuisgjsdgcsdkugfsk-rpm","code":{"coding":[{"system":"http://local-system","code":"max_rpm","systemDomainName":"local-system","display":"Max rpm"}]},"fullUrl":"urn:uuid:78fdd8f0-f943-4946-b418-678ef5a8e7c7","valueQuantity":{"unit":"Hz","system":"http://unitsofmeasure.org","code":"hZ","value":98765}}],"code":{"coding":[{"system":"http://local-system","code":"rpm","systemDomainName":"local-system","display":"rpm"}]},"effectivePeriod":{"start":"2021-06-18T07:47:38+03:00","end":"2021-06-18T08:03:09+03:00"},"subject":{"reference":"https://opensource.samsung.com/projects/helifit/patient/user12@puglia.gatekeeper.com","display":"60b36ccc05f8c40fc9428105"},"derivedFrom":[{"reference":"https://opensource.samsung.com/projects/helifit/observation/fuisgjsdgcsdkugfsk","display":"fuisgjsdgcsdkugfsk"}],"id":"fuisgjsdgcsdkugfsk-rpm","device":{"identifier":{"system":"https://opensource.samsung.com/projects/helifit/device","value":"XaIq54it7a"}},"resourceType":"Observation","status":"final"},"fullUrl":"https://opensource.samsung.com/projects/helifit/observation/fuisgjsdgcsdkugfsk-rpm"},{"request":{"method":"POST","url":"Observation"},"resource":{"identifier":[{"system":"https://opensource.samsung.com/projects/helifit/identifier","value":"fuisgjsdgcsdkugfsk-vo2-max"}],"code":{"coding":[{"system":"http://local-system","code":"vo2_max","systemDomainName":"local-system","display":"Vo2_max"}]},"effectivePeriod":{"start":"2021-06-18T07:47:38+03:00","end":"2021-06-18T08:03:09+03:00"},"subject":{"reference":"https://opensource.samsung.com/projects/helifit/patient/user12@puglia.gatekeeper.com","display":"60b36ccc05f8c40fc9428105"},"derivedFrom":[{"reference":"https://opensource.samsung.com/projects/helifit/observation/fuisgjsdgcsdkugfsk","display":"fuisgjsdgcsdkugfsk"}],"id":"fuisgjsdgcsdkugfsk-vo2-max","device":{"identifier":{"system":"https://opensource.samsung.com/projects/helifit/device","value":"XaIq54it7a"}},"resourceType":"Observation","status":"final","valueQuantity":{"unit":"mL/kg/min","system":"http://unitsofmeasure.org","code":"mL/kg/min","value":654}},"fullUrl":"https://opensource.samsung.com/projects/helifit/observation/fuisgjsdgcsdkugfsk-vo2-max"},{"request":{"method":"POST","url":"Observation"},"resource":{"identifier":[{"system":"https://opensource.samsung.com/projects/helifit/identifier","value":"fuisgjsdgcsdkugfsk-location-0"}],"component":[{"resourceId":"fuisgjsdgcsdkugfsk-location-0","code":{"coding":[{"system":"http://local-system","code":"latitude","systemDomainName":"local-system","display":"Latitude"}]},"fullUrl":"urn:uuid:ec707157-0552-4ed5-88ec-8c559aca305c","valueQuantity":{"unit":"...","system":"http://unitsofmeasure.org","code":"...","value":2.7413864}},{"resourceId":"fuisgjsdgcsdkugfsk-location-0","code":{"coding":[{"system":"http://local-system","code":"longitude","systemDomainName":"local-system","display":"Longitude"}]},"fullUrl":"urn:uuid:c58f57a0-a4d4-4ff2-9751-83b1621c54f6","valueQuantity":{"unit":"...","system":"http://unitsofmeasure.org","code":"...","value":60.37224}},{"resourceId":"fuisgjsdgcsdkugfsk-location-0","code":{"coding":[{"system":"http://local-system","code":"altitude","systemDomainName":"local-system","display":"Altitude"}]},"fullUrl":"urn:uuid:00dce55a-cd76-4e04-9b1a-28e458ffa402","valueQuantity":{"unit":"m","system":"http://unitsofmeasure.org","code":"...","value":39}},{"resourceId":"fuisgjsdgcsdkugfsk-location-0","code":{"coding":[{"system":"http://local-system","code":"accuracy","systemDomainName":"local-system","display":"Accuracy"}]},"fullUrl":"urn:uuid:df044887-c85e-4373-8347-69e0bab90303","valueQuantity":{"unit":"...","system":"http://unitsofmeasure.org","code":"...","value":0}}],"code":{"coding":[{"system":"http://local-system","code":"location","systemDomainName":"local-system","display":"Location"}]},"effectivePeriod":{"start":"2015-01-28T16:58:16+02:00","end":"2021-06-18T10:03:59+03:00"},"subject":{"reference":"https://opensource.samsung.com/projects/helifit/patient/user12@puglia.gatekeeper.com","display":"60b36ccc05f8c40fc9428105"},"derivedFrom":[{"reference":"https://opensource.samsung.com/projects/helifit/observation/fuisgjsdgcsdkugfsk","display":"fuisgjsdgcsdkugfsk"}],"id":"fuisgjsdgcsdkugfsk-location-0","device":{"identifier":{"system":"https://opensource.samsung.com/projects/helifit/device","value":"XaIq54it7a"}},"resourceType":"Observation","status":"final"},"fullUrl":"https://opensource.samsung.com/projects/helifit/observation/fuisgjsdgcsdkugfsk-location-0"},{"request":{"method":"POST","url":"Observation"},"resource":{"identifier":[{"system":"https://opensource.samsung.com/projects/helifit/identifier","value":"fuisgjsdgcsdkugfsk-location-1"}],"component":[{"resourceId":"fuisgjsdgcsdkugfsk-location-1","code":{"coding":[{"system":"http://local-system","code":"latitude","systemDomainName":"local-system","display":"Latitude"}]},"fullUrl":"urn:uuid:ce3f0639-c655-4b6d-9b55-a02298ea0ab5","valueQuantity":{"unit":"...","system":"http://unitsofmeasure.org","code":"...","value":5.7413864}},{"resourceId":"fuisgjsdgcsdkugfsk-location-1","code":{"coding":[{"system":"http://local-system","code":"longitude","systemDomainName":"local-system","display":"Longitude"}]},"fullUrl":"urn:uuid:75bb102c-0483-4145-ab92-4fa82735491c","valueQuantity":{"unit":"...","system":"http://unitsofmeasure.org","code":"...","value":50.37224}},{"resourceId":"fuisgjsdgcsdkugfsk-location-1","code":{"coding":[{"system":"http://local-system","code":"altitude","systemDomainName":"local-system","display":"Altitude"}]},"fullUrl":"urn:uuid:b9d1aff4-2d70-4dad-ac60-7c340cef7b0b","valueQuantity":{"unit":"m","system":"http://unitsofmeasure.org","code":"...","value":49}},{"resourceId":"fuisgjsdgcsdkugfsk-location-1","code":{"coding":[{"system":"http://local-system","code":"accuracy","systemDomainName":"local-system","display":"Accuracy"}]},"fullUrl":"urn:uuid:b6606dff-1d83-4cb0-a5f5-a012e0875189","valueQuantity":{"unit":"...","system":"http://unitsofmeasure.org","code":"...","value":0}}],"code":{"coding":[{"system":"http://local-system","code":"location","systemDomainName":"local-system","display":"Location"}]},"effectivePeriod":{"start":"2015-01-28T16:58:16+02:00","end":"2484-08-16T01:41:45+03:00"},"subject":{"reference":"https://opensource.samsung.com/projects/helifit/patient/user12@puglia.gatekeeper.com","display":"60b36ccc05f8c40fc9428105"},"derivedFrom":[{"reference":"https://opensource.samsung.com/projects/helifit/observation/fuisgjsdgcsdkugfsk","display":"fuisgjsdgcsdkugfsk"}],"id":"fuisgjsdgcsdkugfsk-location-1","device":{"identifier":{"system":"https://opensource.samsung.com/projects/helifit/device","value":"XaIq54it7a"}},"resourceType":"Observation","status":"final"},"fullUrl":"https://opensource.samsung.com/projects/helifit/observation/fuisgjsdgcsdkugfsk-location-1"}],"type":"transaction","resourceType":"Bundle"}